trial_type,trial_index,time_elapsed,internal_node_id,subject,condition,condition_vector,success,timeout,failed_images,failed_audio,failed_video,rt,stimulus,response,images,cur_target,cur_target_image,cur_target_type,round_type,set,test_audio,choice,chosen_image,choices,chosen_images,chosen_items,chosen_audio_items,first_choice_location,chosen_images_in_order,chosen_audio_in_order,chosen_items_in_order,sample_num,chosen_index,chosen_audio,central_images
pavlovia,0,4,0.0-0.0,,,"[""active"",""passive"",""passive"",""active""]",,,,,,,,,,,,,,,,,,,,,,,,,,,,,
preload,1,38359,0.0-1.0,,,"[""active"",""passive"",""passive"",""active""]",TRUE,FALSE,[],[],[],,,,,,,,,,,,,,,,,,,,,,,,
html-button-response,2,67435,0.0-2.0,,,"[""active"",""passive"",""passive"",""active""]",,,,,,29076,,0,,,,,,,,,,,,,,,,,,,,,
coact-test-prompt,3,68243,0.0-3.0,,,"[""active"",""passive"",""passive"",""active""]",,,,,,807,,,"[""stims/images/duck.png"",""stims/images/frog.png"",""stims/images/cow.png"",""stims/images/cat.png"",""stims/images/squirrel.png"",""stims/images/horse.png"",""stims/images/wolf.png"",""stims/images/butterfly.png""]",duck,stims/images/duck.png,familiar,practice_pretest,familiar,,,,,,,,,,,,,,,
coact-test,4,72081,0.0-4.0,,,"[""active"",""passive"",""passive"",""active""]",,,,,,297986,,,"[""stims/images/duck.png"",""stims/images/frog.png"",""stims/images/cow.png"",""stims/images/cat.png"",""stims/images/squirrel.png"",""stims/images/horse.png"",""stims/images/wolf.png"",""stims/images/butterfly.png""]",duck,stims/images/duck.png,familiar,practice_pretest,familiar,stims/audio/wheres_duck.wav,0,stims/images/duck.png,,,,,,,,,,,,
coact-test-prompt,5,78065,0.0-5.0,,,"[""active"",""passive"",""passive"",""active""]",,,,,,5983,,,"[""stims/images/cat.png"",""stims/images/frog.png"",""stims/images/squirrel.png"",""stims/images/horse.png"",""stims/images/duck.png"",""stims/images/butterfly.png"",""stims/images/cow.png"",""stims/images/wolf.png""]",cat,stims/images/cat.png,familiar,practice_pretest,familiar,,,,,,,,,,,,,,,
coact-test,6,81111,0.0-6.0,,,"[""active"",""passive"",""passive"",""active""]",,,,,,307007.3307,,,"[""stims/images/cat.png"",""stims/images/frog.png"",""stims/images/squirrel.png"",""stims/images/horse.png"",""stims/images/duck.png"",""stims/images/butterfly.png"",""stims/images/cow.png"",""stims/images/wolf.png""]",cat,stims/images/cat.png,familiar,practice_pretest,familiar,stims/audio/find_cat.wav,0,stims/images/cat.png,,,,,,,,,,,,
coact-test-prompt,7,87052,0.0-7.0,,,"[""active"",""passive"",""passive"",""active""]",,,,,,5939,,,"[""stims/images/raccoon.png"",""stims/images/lynx.png"",""stims/images/tiger.png"",""stims/images/dolphin.png"",""stims/images/tarsier.png"",""stims/images/sloth.png"",""stims/images/elephant.png"",""stims/images/nyala.png""]",tiger,stims/images/tiger.png,familiar,pretest,1,,,,,,,,,,,,,,,
coact-test,8,91457,0.0-8.0,,,"[""active"",""passive"",""passive"",""active""]",,,,,,317344.3467,,,"[""stims/images/raccoon.png"",""stims/images/lynx.png"",""stims/images/tiger.png"",""stims/images/dolphin.png"",""stims/images/tarsier.png"",""stims/images/sloth.png"",""stims/images/elephant.png"",""stims/images/nyala.png""]",tiger,stims/images/tiger.png,familiar,pretest,1,stims/audio/wheres_tiger.wav,2,stims/images/tiger.png,,,,,,,,,,,,
coact-test-prompt,9,94116,0.0-9.0,,,"[""active"",""passive"",""passive"",""active""]",,,,,,2658,,,"[""stims/images/pig.png"",""stims/images/aardvark.png"",""stims/images/antelope.png"",""stims/images/porcupine.png"",""stims/images/echidna.png"",""stims/images/hippopotamus.png"",""stims/images/zebra.png"",""stims/images/cormorant.png""]",porcupine,stims/images/porcupine.png,somewhat familiar,pretest,2,,,,,,,,,,,,,,,
coact-test,10,97893,0.0-10.0,,,"[""active"",""passive"",""passive"",""active""]",,,,,,323774.28,,,"[""stims/images/pig.png"",""stims/images/aardvark.png"",""stims/images/antelope.png"",""stims/images/porcupine.png"",""stims/images/echidna.png"",""stims/images/hippopotamus.png"",""stims/images/zebra.png"",""stims/images/cormorant.png""]",porcupine,stims/images/porcupine.png,somewhat familiar,pretest,2,stims/audio/wheres_porcupine.wav,3,stims/images/porcupine.png,,,,,,,,,,,,
coact-test-prompt,11,100545,0.0-11.0,,,"[""active"",""passive"",""passive"",""active""]",,,,,,2650,,,"[""stims/images/zebra.png"",""stims/images/pig.png"",""stims/images/cormorant.png"",""stims/images/echidna.png"",""stims/images/antelope.png"",""stims/images/hippopotamus.png"",""stims/images/porcupine.png"",""stims/images/aardvark.png""]",pig,stims/images/pig.png,familiar,pretest,2,,,,,,,,,,,,,,,
coact-test,12,103529,0.0-12.0,,,"[""active"",""passive"",""passive"",""active""]",,,,,,329404.8533,,,"[""stims/images/zebra.png"",""stims/images/pig.png"",""stims/images/cormorant.png"",""stims/images/echidna.png"",""stims/images/antelope.png"",""stims/images/hippopotamus.png"",""stims/images/porcupine.png"",""stims/images/aardvark.png""]",pig,stims/images/pig.png,familiar,pretest,2,stims/audio/find_pig.wav,1,stims/images/pig.png,,,,,,,,,,,,
coact-test-prompt,13,105431,0.0-13.0,,,"[""active"",""passive"",""passive"",""active""]",,,,,,1900,,,"[""stims/images/aardvark.png"",""stims/images/pig.png"",""stims/images/hippopotamus.png"",""stims/images/cormorant.png"",""stims/images/antelope.png"",""stims/images/zebra.png"",""stims/images/echidna.png"",""stims/images/porcupine.png""]",zebra,stims/images/zebra.png,familiar,pretest,2,,,,,,,,,,,,,,,
coact-test,14,109125,0.0-14.0,,,"[""active"",""passive"",""passive"",""active""]",,,,,,334994.9653,,,"[""stims/images/aardvark.png"",""stims/images/pig.png"",""stims/images/hippopotamus.png"",""stims/images/cormorant.png"",""stims/images/antelope.png"",""stims/images/zebra.png"",""stims/images/echidna.png"",""stims/images/porcupine.png""]",zebra,stims/images/zebra.png,familiar,pretest,2,stims/audio/find_zebra.wav,5,stims/images/zebra.png,,,,,,,,,,,,
coact-test-prompt,15,111193,0.0-15.0,,,"[""active"",""passive"",""passive"",""active""]",,,,,,2067,,,"[""stims/images/nyala.png"",""stims/images/tiger.png"",""stims/images/lynx.png"",""stims/images/raccoon.png"",""stims/images/elephant.png"",""stims/images/sloth.png"",""stims/images/tarsier.png"",""stims/images/dolphin.png""]",dolphin,stims/images/dolphin.png,somewhat familiar,pretest,1,,,,,,,,,,,,,,,
coact-test,16,114646,0.0-16.0,,,"[""active"",""passive"",""passive"",""active""]",,,,,,340511.2053,,,"[""stims/images/nyala.png"",""stims/images/tiger.png"",""stims/images/lynx.png"",""stims/images/raccoon.png"",""stims/images/elephant.png"",""stims/images/sloth.png"",""stims/images/tarsier.png"",""stims/images/dolphin.png""]",dolphin,stims/images/dolphin.png,somewhat familiar,pretest,1,stims/audio/find_dolphin.wav,7,stims/images/dolphin.png,,,,,,,,,,,,
coact-test-prompt,17,115132,0.0-17.0,,,"[""active"",""passive"",""passive"",""active""]",,,,,,485,,,"[""stims/images/aardvark.png"",""stims/images/hippopotamus.png"",""stims/images/zebra.png"",""stims/images/echidna.png"",""stims/images/antelope.png"",""stims/images/porcupine.png"",""stims/images/pig.png"",""stims/images/cormorant.png""]",cormorant,stims/images/cormorant.png,unfamiliar,pretest,2,,,,,,,,,,,,,,,
coact-test,18,119465,0.0-18.0,,,"[""active"",""passive"",""passive"",""active""]",,,,,,345326.2693,,,"[""stims/images/aardvark.png"",""stims/images/hippopotamus.png"",""stims/images/zebra.png"",""stims/images/echidna.png"",""stims/images/antelope.png"",""stims/images/porcupine.png"",""stims/images/pig.png"",""stims/images/cormorant.png""]",cormorant,stims/images/cormorant.png,unfamiliar,pretest,2,stims/audio/wheres_cormorant.wav,4,stims/images/antelope.png,,,,,,,,,,,,
coact-test-prompt,19,121157,0.0-19.0,,,"[""active"",""passive"",""passive"",""active""]",,,,,,1691,,,"[""stims/images/antelope.png"",""stims/images/porcupine.png"",""stims/images/zebra.png"",""stims/images/cormorant.png"",""stims/images/pig.png"",""stims/images/hippopotamus.png"",""stims/images/aardvark.png"",""stims/images/echidna.png""]",aardvark,stims/images/aardvark.png,somewhat unfamiliar,pretest,2,,,,,,,,,,,,,,,
coact-test,20,124909,0.0-20.0,,,"[""active"",""passive"",""passive"",""active""]",,,,,,350765.24,,,"[""stims/images/antelope.png"",""stims/images/porcupine.png"",""stims/images/zebra.png"",""stims/images/cormorant.png"",""stims/images/pig.png"",""stims/images/hippopotamus.png"",""stims/images/aardvark.png"",""stims/images/echidna.png""]",aardvark,stims/images/aardvark.png,somewhat unfamiliar,pretest,2,stims/audio/find_aardvark.wav,7,stims/images/echidna.png,,,,,,,,,,,,
coact-test-prompt,21,126110,0.0-21.0,,,"[""active"",""passive"",""passive"",""active""]",,,,,,1199,,,"[""stims/images/dolphin.png"",""stims/images/lynx.png"",""stims/images/raccoon.png"",""stims/images/sloth.png"",""stims/images/elephant.png"",""stims/images/tiger.png"",""stims/images/nyala.png"",""stims/images/tarsier.png""]",lynx,stims/images/lynx.png,somewhat unfamiliar,pretest,1,,,,,,,,,,,,,,,
coact-test,22,129537,0.0-22.0,,,"[""active"",""passive"",""passive"",""active""]",,,,,,355388.288,,,"[""stims/images/dolphin.png"",""stims/images/lynx.png"",""stims/images/raccoon.png"",""stims/images/sloth.png"",""stims/images/elephant.png"",""stims/images/tiger.png"",""stims/images/nyala.png"",""stims/images/tarsier.png""]",lynx,stims/images/lynx.png,somewhat unfamiliar,pretest,1,stims/audio/wheres_lynx.wav,3,stims/images/sloth.png,,,,,,,,,,,,
coact-test-prompt,23,131246,0.0-23.0,,,"[""active"",""passive"",""passive"",""active""]",,,,,,1708,,,"[""stims/images/raccoon.png"",""stims/images/nyala.png"",""stims/images/tarsier.png"",""stims/images/elephant.png"",""stims/images/dolphin.png"",""stims/images/lynx.png"",""stims/images/sloth.png"",""stims/images/tiger.png""]",sloth,stims/images/sloth.png,somewhat unfamiliar,pretest,1,,,,,,,,,,,,,,,
coact-test,24,135583,0.0-24.0,,,"[""active"",""passive"",""passive"",""active""]",,,,,,361429.152,,,"[""stims/images/raccoon.png"",""stims/images/nyala.png"",""stims/images/tarsier.png"",""stims/images/elephant.png"",""stims/images/dolphin.png"",""stims/images/lynx.png"",""stims/images/sloth.png"",""stims/images/tiger.png""]",sloth,stims/images/sloth.png,somewhat unfamiliar,pretest,1,stims/audio/find_sloth.wav,6,stims/images/sloth.png,,,,,,,,,,,,
coact-test-prompt,25,136565,0.0-25.0,,,"[""active"",""passive"",""passive"",""active""]",,,,,,980,,,"[""stims/images/nyala.png"",""stims/images/tiger.png"",""stims/images/sloth.png"",""stims/images/lynx.png"",""stims/images/dolphin.png"",""stims/images/tarsier.png"",""stims/images/elephant.png"",""stims/images/raccoon.png""]",tarsier,stims/images/tarsier.png,unfamiliar,pretest,1,,,,,,,,,,,,,,,
coact-test,26,139940,0.0-26.0,,,"[""active"",""passive"",""passive"",""active""]",,,,,,365780.832,,,"[""stims/images/nyala.png"",""stims/images/tiger.png"",""stims/images/sloth.png"",""stims/images/lynx.png"",""stims/images/dolphin.png"",""stims/images/tarsier.png"",""stims/images/elephant.png"",""stims/images/raccoon.png""]",tarsier,stims/images/tarsier.png,unfamiliar,pretest,1,stims/audio/wheres_tarsier.wav,3,stims/images/lynx.png,,,,,,,,,,,,
coact-test-prompt,27,142261,0.0-27.0,,,"[""active"",""passive"",""passive"",""active""]",,,,,,2319,,,"[""stims/images/sloth.png"",""stims/images/tiger.png"",""stims/images/dolphin.png"",""stims/images/lynx.png"",""stims/images/elephant.png"",""stims/images/raccoon.png"",""stims/images/tarsier.png"",""stims/images/nyala.png""]",raccoon,stims/images/raccoon.png,somewhat familiar,pretest,1,,,,,,,,,,,,,,,
coact-test,28,147406,0.0-28.0,,,"[""active"",""passive"",""passive"",""active""]",,,,,,373241.136,,,"[""stims/images/sloth.png"",""stims/images/tiger.png"",""stims/images/dolphin.png"",""stims/images/lynx.png"",""stims/images/elephant.png"",""stims/images/raccoon.png"",""stims/images/tarsier.png"",""stims/images/nyala.png""]",raccoon,stims/images/raccoon.png,somewhat familiar,pretest,1,stims/audio/find_raccoon.wav,5,stims/images/raccoon.png,,,,,,,,,,,,
coact-test-prompt,29,149031,0.0-29.0,,,"[""active"",""passive"",""passive"",""active""]",,,,,,1625,,,"[""stims/images/echidna.png"",""stims/images/zebra.png"",""stims/images/porcupine.png"",""stims/images/pig.png"",""stims/images/antelope.png"",""stims/images/cormorant.png"",""stims/images/aardvark.png"",""stims/images/hippopotamus.png""]",echidna,stims/images/echidna.png,unfamiliar,pretest,2,,,,,,,,,,,,,,,
coact-test,30,152715,0.0-30.0,,,"[""active"",""passive"",""passive"",""active""]",,,,,,378544.3653,,,"[""stims/images/echidna.png"",""stims/images/zebra.png"",""stims/images/porcupine.png"",""stims/images/pig.png"",""stims/images/antelope.png"",""stims/images/cormorant.png"",""stims/images/aardvark.png"",""stims/images/hippopotamus.png""]",echidna,stims/images/echidna.png,unfamiliar,pretest,2,stims/audio/find_echidna.wav,0,stims/images/echidna.png,,,,,,,,,,,,
coact-test-prompt,31,155723,0.0-31.0,,,"[""active"",""passive"",""passive"",""active""]",,,,,,3006,,,"[""stims/images/tarsier.png"",""stims/images/lynx.png"",""stims/images/raccoon.png"",""stims/images/sloth.png"",""stims/images/elephant.png"",""stims/images/dolphin.png"",""stims/images/tiger.png"",""stims/images/nyala.png""]",nyala,stims/images/nyala.png,unfamiliar,pretest,1,,,,,,,,,,,,,,,
coact-test,32,159029,0.0-32.0,,,"[""active"",""passive"",""passive"",""active""]",,,,,,384851.6747,,,"[""stims/images/tarsier.png"",""stims/images/lynx.png"",""stims/images/raccoon.png"",""stims/images/sloth.png"",""stims/images/elephant.png"",""stims/images/dolphin.png"",""stims/images/tiger.png"",""stims/images/nyala.png""]",nyala,stims/images/nyala.png,unfamiliar,pretest,1,stims/audio/wheres_nyala.wav,0,stims/images/tarsier.png,,,,,,,,,,,,
coact-test-prompt,33,161082,0.0-33.0,,,"[""active"",""passive"",""passive"",""active""]",,,,,,2052,,,"[""stims/images/nyala.png"",""stims/images/elephant.png"",""stims/images/dolphin.png"",""stims/images/lynx.png"",""stims/images/tarsier.png"",""stims/images/tiger.png"",""stims/images/raccoon.png"",""stims/images/sloth.png""]",elephant,stims/images/elephant.png,familiar,pretest,1,,,,,,,,,,,,,,,
coact-test,34,165063,0.0-34.0,,,"[""active"",""passive"",""passive"",""active""]",,,,,,390880.3147,,,"[""stims/images/nyala.png"",""stims/images/elephant.png"",""stims/images/dolphin.png"",""stims/images/lynx.png"",""stims/images/tarsier.png"",""stims/images/tiger.png"",""stims/images/raccoon.png"",""stims/images/sloth.png""]",elephant,stims/images/elephant.png,familiar,pretest,1,stims/audio/find_elephant.wav,1,stims/images/elephant.png,,,,,,,,,,,,
coact-test-prompt,35,168255,0.0-35.0,,,"[""active"",""passive"",""passive"",""active""]",,,,,,3191,,,"[""stims/images/antelope.png"",""stims/images/echidna.png"",""stims/images/cormorant.png"",""stims/images/zebra.png"",""stims/images/aardvark.png"",""stims/images/porcupine.png"",""stims/images/pig.png"",""stims/images/hippopotamus.png""]",antelope,stims/images/antelope.png,somewhat unfamiliar,pretest,2,,,,,,,,,,,,,,,
coact-test,36,172430,0.0-36.0,,,"[""active"",""passive"",""passive"",""active""]",,,,,,398240.144,,,"[""stims/images/antelope.png"",""stims/images/echidna.png"",""stims/images/cormorant.png"",""stims/images/zebra.png"",""stims/images/aardvark.png"",""stims/images/porcupine.png"",""stims/images/pig.png"",""stims/images/hippopotamus.png""]",antelope,stims/images/antelope.png,somewhat unfamiliar,pretest,2,stims/audio/wheres_antelope.wav,7,stims/images/hippopotamus.png,,,,,,,,,,,,
coact-test-prompt,37,173877,0.0-37.0,,,"[""active"",""passive"",""passive"",""active""]",,,,,,1446,,,"[""stims/images/pig.png"",""stims/images/porcupine.png"",""stims/images/echidna.png"",""stims/images/zebra.png"",""stims/images/aardvark.png"",""stims/images/antelope.png"",""stims/images/hippopotamus.png"",""stims/images/cormorant.png""]",hippopotamus,stims/images/hippopotamus.png,somewhat familiar,pretest,2,,,,,,,,,,,,,,,
coact-test,38,180030,0.0-38.0,,,"[""active"",""passive"",""passive"",""active""]",,,,,,405834.52,,,"[""stims/images/pig.png"",""stims/images/porcupine.png"",""stims/images/echidna.png"",""stims/images/zebra.png"",""stims/images/aardvark.png"",""stims/images/antelope.png"",""stims/images/hippopotamus.png"",""stims/images/cormorant.png""]",hippopotamus,stims/images/hippopotamus.png,somewhat familiar,pretest,2,stims/audio/wheres_hippopotamus.wav,6,stims/images/hippopotamus.png,,,,,,,,,,,,
html-button-response,39,259411,0.0-39.0,,,"[""active"",""passive"",""passive"",""active""]",,,,,,79383,,0,,,,,,,,,,,,,,,,,,,,,
coact-grid,40,270609,0.0-40.0,,,"[""active"",""passive"",""passive"",""active""]",,,,,,9887,,,"[""stims/images/wolf.png"",""stims/images/cow.png"",""stims/images/frog.png"",""stims/images/cat.png"",""stims/images/duck.png"",""stims/images/squirrel.png"",""stims/images/horse.png"",""stims/images/butterfly.png""]",,,,,familiar,,,,"[3,4]","[""stims/images/cat.png"",""stims/images/duck.png""]","[""cat"",""duck""]","[""stims/audio/its_cat.wav"",""stims/audio/its_duck.wav""]",right,"[""stims/images/duck.png"",""stims/images/cat.png""]","[""stims/audio/its_duck.wav"",""stims/audio/its_cat.wav""]","[""duck"",""cat""]",0,,,
coact-grid-choice,41,276043,0.0-41.0,,,"[""active"",""passive"",""passive"",""active""]",,,,,,5433,,,"[""stims/images/wolf.png"",""stims/images/cow.png"",""stims/images/frog.png"",""stims/images/cat.png"",""stims/images/duck.png"",""stims/images/squirrel.png"",""stims/images/horse.png"",""stims/images/butterfly.png""]",,,,,familiar,,,stims/images/duck.png,,,,,right,"[""stims/images/duck.png"",""stims/images/cat.png""]","[""stims/audio/its_duck.wav"",""stims/audio/its_cat.wav""]","[""duck"",""cat""]",0,1,stims/audio/its_cat.wav,"[""stims/images/cat.png"",""stims/images/duck.png""]"
coact-grid-choice-audio,42,279055,0.0-42.0,,,"[""active"",""passive"",""passive"",""active""]",,,,,,3000,,,,,,,,familiar,,,stims/images/duck.png,,,,,right,,,,0,,stims/audio/its_cat.wav,
coact-grid,43,290353,0.0-43.0,,,"[""active"",""passive"",""passive"",""active""]",,,,,,9989,,,"[""stims/images/squirrel.png"",""stims/images/cow.png"",""stims/images/cat.png"",""stims/images/frog.png"",""stims/images/duck.png"",""stims/images/butterfly.png"",""stims/images/horse.png"",""stims/images/wolf.png""]",,,,,familiar,,,,"[6,0]","[""stims/images/horse.png"",""stims/images/squirrel.png""]","[""horse"",""squirrel""]","[""stims/audio/thats_horse.wav"",""stims/audio/thats_squirrel.wav""]",left,"[""stims/images/horse.png"",""stims/images/squirrel.png""]","[""stims/audio/thats_horse.wav"",""stims/audio/thats_squirrel.wav""]","[""horse"",""squirrel""]",1,,,
coact-grid-choice,44,295789,0.0-44.0,,,"[""active"",""passive"",""passive"",""active""]",,,,,,5435,,,"[""stims/images/squirrel.png"",""stims/images/cow.png"",""stims/images/cat.png"",""stims/images/frog.png"",""stims/images/duck.png"",""stims/images/butterfly.png"",""stims/images/horse.png"",""stims/images/wolf.png""]",,,,,familiar,,,stims/images/squirrel.png,,,,,left,"[""stims/images/horse.png"",""stims/images/squirrel.png""]","[""stims/audio/thats_horse.wav"",""stims/audio/thats_squirrel.wav""]","[""horse"",""squirrel""]",1,1,stims/audio/thats_squirrel.wav,"[""stims/images/horse.png"",""stims/images/squirrel.png""]"
coact-grid-choice-audio,45,298798,0.0-45.0,,,"[""active"",""passive"",""passive"",""active""]",,,,,,3000,,,,,,,,familiar,,,stims/images/squirrel.png,,,,,left,,,,1,,stims/audio/thats_squirrel.wav,
coact-grid,46,311405,0.0-46.0,,,"[""active"",""passive"",""passive"",""active""]",,,,,,11300,,,"[""stims/images/tarsier.png"",""stims/images/lynx.png"",""stims/images/elephant.png"",""stims/images/sloth.png"",""stims/images/raccoon.png"",""stims/images/dolphin.png"",""stims/images/nyala.png"",""stims/images/tiger.png""]",,,,,1,,,,"[0,7]","[""stims/images/tarsier.png"",""stims/images/tiger.png""]","[""tarsier"",""tiger""]","[""stims/audio/thats_tarsier.wav"",""stims/audio/thats_tiger.wav""]",right,"[""stims/images/tiger.png"",""stims/images/tarsier.png""]","[""stims/audio/thats_tiger.wav"",""stims/audio/thats_tarsier.wav""]","[""tiger"",""tarsier""]",0,,,
coact-grid-choice,47,313865,0.0-47.0,,,"[""active"",""passive"",""passive"",""active""]",,,,,,2459,,,"[""stims/images/tarsier.png"",""stims/images/lynx.png"",""stims/images/elephant.png"",""stims/images/sloth.png"",""stims/images/raccoon.png"",""stims/images/dolphin.png"",""stims/images/nyala.png"",""stims/images/tiger.png""]",,,,,1,,,stims/images/tiger.png,,,,,right,"[""stims/images/tiger.png"",""stims/images/tarsier.png""]","[""stims/audio/thats_tiger.wav"",""stims/audio/thats_tarsier.wav""]","[""tiger"",""tarsier""]",0,1,stims/audio/thats_tarsier.wav,"[""stims/images/tarsier.png"",""stims/images/tiger.png""]"
coact-grid-choice-audio,48,316875,0.0-48.0,,,"[""active"",""passive"",""passive"",""active""]",,,,,,3000,,,,,,,,1,,,stims/images/tiger.png,,,,,right,,,,0,,stims/audio/thats_tarsier.wav,
coact-grid,49,333459,0.0-49.0,,,"[""active"",""passive"",""passive"",""active""]",,,,,,15278,,,"[""stims/images/nyala.png"",""stims/images/tiger.png"",""stims/images/dolphin.png"",""stims/images/lynx.png"",""stims/images/tarsier.png"",""stims/images/sloth.png"",""stims/images/elephant.png"",""stims/images/raccoon.png""]",,,,,1,,,,"[1,3]","[""stims/images/tiger.png"",""stims/images/lynx.png""]","[""tiger"",""lynx""]","[""stims/audio/thats_tiger.wav"",""stims/audio/thats_lynx.wav""]",left,"[""stims/images/tiger.png"",""stims/images/lynx.png""]","[""stims/audio/thats_tiger.wav"",""stims/audio/thats_lynx.wav""]","[""tiger"",""lynx""]",1,,,
coact-grid-choice,50,336578,0.0-50.0,,,"[""active"",""passive"",""passive"",""active""]",,,,,,3117,,,"[""stims/images/nyala.png"",""stims/images/tiger.png"",""stims/images/dolphin.png"",""stims/images/lynx.png"",""stims/images/tarsier.png"",""stims/images/sloth.png"",""stims/images/elephant.png"",""stims/images/raccoon.png""]",,,,,1,,,stims/images/lynx.png,,,,,left,"[""stims/images/tiger.png"",""stims/images/lynx.png""]","[""stims/audio/thats_tiger.wav"",""stims/audio/thats_lynx.wav""]","[""tiger"",""lynx""]",1,1,stims/audio/thats_lynx.wav,"[""stims/images/tiger.png"",""stims/images/lynx.png""]"
coact-grid-choice-audio,51,339586,0.0-51.0,,,"[""active"",""passive"",""passive"",""active""]",,,,,,3000,,,,,,,,1,,,stims/images/lynx.png,,,,,left,,,,1,,stims/audio/thats_lynx.wav,
coact-grid,52,348258,0.0-52.0,,,"[""active"",""passive"",""passive"",""active""]",,,,,,7365,,,"[""stims/images/elephant.png"",""stims/images/raccoon.png"",""stims/images/dolphin.png"",""stims/images/nyala.png"",""stims/images/lynx.png"",""stims/images/tiger.png"",""stims/images/sloth.png"",""stims/images/tarsier.png""]",,,,,1,,,,"[6,2]","[""stims/images/sloth.png"",""stims/images/dolphin.png""]","[""sloth"",""dolphin""]","[""stims/audio/its_sloth.wav"",""stims/audio/its_dolphin.wav""]",left,"[""stims/images/sloth.png"",""stims/images/dolphin.png""]","[""stims/audio/its_sloth.wav"",""stims/audio/its_dolphin.wav""]","[""sloth"",""dolphin""]",2,,,
coact-grid-choice,53,351404,0.0-53.0,,,"[""active"",""passive"",""passive"",""active""]",,,,,,3144,,,"[""stims/images/elephant.png"",""stims/images/raccoon.png"",""stims/images/dolphin.png"",""stims/images/nyala.png"",""stims/images/lynx.png"",""stims/images/tiger.png"",""stims/images/sloth.png"",""stims/images/tarsier.png""]",,,,,1,,,stims/images/sloth.png,,,,,left,"[""stims/images/sloth.png"",""stims/images/dolphin.png""]","[""stims/audio/its_sloth.wav"",""stims/audio/its_dolphin.wav""]","[""sloth"",""dolphin""]",2,0,stims/audio/its_sloth.wav,"[""stims/images/sloth.png"",""stims/images/dolphin.png""]"
coact-grid-choice-audio,54,354413,0.0-54.0,,,"[""active"",""passive"",""passive"",""active""]",,,,,,3003,,,,,,,,1,,,stims/images/sloth.png,,,,,left,,,,2,,stims/audio/its_sloth.wav,
coact-grid,55,362015,0.0-55.0,,,"[""active"",""passive"",""passive"",""active""]",,,,,,6297,,,"[""stims/images/tarsier.png"",""stims/images/dolphin.png"",""stims/images/tiger.png"",""stims/images/raccoon.png"",""stims/images/elephant.png"",""stims/images/sloth.png"",""stims/images/nyala.png"",""stims/images/lynx.png""]",,,,,1,,,,"[4,3]","[""stims/images/elephant.png"",""stims/images/raccoon.png""]","[""elephant"",""raccoon""]","[""stims/audio/thats_elephant.wav"",""stims/audio/thats_raccoon.wav""]",right,"[""stims/images/raccoon.png"",""stims/images/elephant.png""]","[""stims/audio/thats_raccoon.wav"",""stims/audio/thats_elephant.wav""]","[""raccoon"",""elephant""]",3,,,
coact-grid-choice,56,364610,0.0-56.0,,,"[""active"",""passive"",""passive"",""active""]",,,,,,2596,,,"[""stims/images/tarsier.png"",""stims/images/dolphin.png"",""stims/images/tiger.png"",""stims/images/raccoon.png"",""stims/images/elephant.png"",""stims/images/sloth.png"",""stims/images/nyala.png"",""stims/images/lynx.png""]",,,,,1,,,stims/images/elephant.png,,,,,right,"[""stims/images/raccoon.png"",""stims/images/elephant.png""]","[""stims/audio/thats_raccoon.wav"",""stims/audio/thats_elephant.wav""]","[""raccoon"",""elephant""]",3,0,stims/audio/thats_raccoon.wav,"[""stims/images/elephant.png"",""stims/images/raccoon.png""]"
coact-grid-choice-audio,57,367619,0.0-57.0,,,"[""active"",""passive"",""passive"",""active""]",,,,,,3000,,,,,,,,1,,,stims/images/elephant.png,,,,,right,,,,3,,stims/audio/thats_raccoon.wav,
coact-grid,58,375484,0.0-58.0,,,"[""active"",""passive"",""passive"",""active""]",,,,,,6559,,,"[""stims/images/raccoon.png"",""stims/images/tarsier.png"",""stims/images/elephant.png"",""stims/images/lynx.png"",""stims/images/nyala.png"",""stims/images/dolphin.png"",""stims/images/sloth.png"",""stims/images/tiger.png""]",,,,,1,,,,"[7,4]","[""stims/images/tiger.png"",""stims/images/nyala.png""]","[""tiger"",""nyala""]","[""stims/audio/its_tiger.wav"",""stims/audio/its_nyala.wav""]",left,"[""stims/images/tiger.png"",""stims/images/nyala.png""]","[""stims/audio/its_tiger.wav"",""stims/audio/its_nyala.wav""]","[""tiger"",""nyala""]",4,,,
coact-grid-choice,59,377151,0.0-59.0,,,"[""active"",""passive"",""passive"",""active""]",,,,,,1667,,,"[""stims/images/raccoon.png"",""stims/images/tarsier.png"",""stims/images/elephant.png"",""stims/images/lynx.png"",""stims/images/nyala.png"",""stims/images/dolphin.png"",""stims/images/sloth.png"",""stims/images/tiger.png""]",,,,,1,,,stims/images/nyala.png,,,,,left,"[""stims/images/tiger.png"",""stims/images/nyala.png""]","[""stims/audio/its_tiger.wav"",""stims/audio/its_nyala.wav""]","[""tiger"",""nyala""]",4,1,stims/audio/its_nyala.wav,"[""stims/images/tiger.png"",""stims/images/nyala.png""]"
coact-grid-choice-audio,60,380161,0.0-60.0,,,"[""active"",""passive"",""passive"",""active""]",,,,,,3000,,,,,,,,1,,,stims/images/nyala.png,,,,,left,,,,4,,stims/audio/its_nyala.wav,
coact-grid,61,388930,0.0-61.0,,,"[""active"",""passive"",""passive"",""active""]",,,,,,7464,,,"[""stims/images/dolphin.png"",""stims/images/nyala.png"",""stims/images/raccoon.png"",""stims/images/lynx.png"",""stims/images/tarsier.png"",""stims/images/sloth.png"",""stims/images/elephant.png"",""stims/images/tiger.png""]",,,,,1,,,,"[1,4]","[""stims/images/nyala.png"",""stims/images/tarsier.png""]","[""nyala"",""tarsier""]","[""stims/audio/its_nyala.wav"",""stims/audio/its_tarsier.wav""]",right,"[""stims/images/tarsier.png"",""stims/images/nyala.png""]","[""stims/audio/its_tarsier.wav"",""stims/audio/its_nyala.wav""]","[""tarsier"",""nyala""]",5,,,
coact-grid-choice,62,391209,0.0-62.0,,,"[""active"",""passive"",""passive"",""active""]",,,,,,2278,,,"[""stims/images/dolphin.png"",""stims/images/nyala.png"",""stims/images/raccoon.png"",""stims/images/lynx.png"",""stims/images/tarsier.png"",""stims/images/sloth.png"",""stims/images/elephant.png"",""stims/images/tiger.png""]",,,,,1,,,stims/images/nyala.png,,,,,right,"[""stims/images/tarsier.png"",""stims/images/nyala.png""]","[""stims/audio/its_tarsier.wav"",""stims/audio/its_nyala.wav""]","[""tarsier"",""nyala""]",5,0,stims/audio/its_tarsier.wav,"[""stims/images/nyala.png"",""stims/images/tarsier.png""]"
coact-grid-choice-audio,63,394217,0.0-63.0,,,"[""active"",""passive"",""passive"",""active""]",,,,,,3000,,,,,,,,1,,,stims/images/nyala.png,,,,,right,,,,5,,stims/audio/its_tarsier.wav,
html-button-response,64,413832,0.0-64.0,,,"[""active"",""passive"",""passive"",""active""]",,,,,,19614,,0,,,,,,,,,,,,,,,,,,,,,
coact-grid,65,421886,0.0-65.0,,,"[""active"",""passive"",""passive"",""active""]",,,,,,6746,,,"[""stims/images/horse.png"",""stims/images/squirrel.png"",""stims/images/frog.png"",""stims/images/cat.png"",""stims/images/butterfly.png"",""stims/images/duck.png"",""stims/images/cow.png"",""stims/images/wolf.png""]",,,,,familiar,,,,"[4,5]","[""stims/images/butterfly.png"",""stims/images/duck.png""]","[""butterfly"",""duck""]","[""stims/audio/its_butterfly.wav"",""stims/audio/its_duck.wav""]",right,"[""stims/images/duck.png"",""stims/images/butterfly.png""]","[""stims/audio/its_duck.wav"",""stims/audio/its_butterfly.wav""]","[""duck"",""butterfly""]",0,,,
coact-grid-choice,66,433216,0.0-66.0,,,"[""active"",""passive"",""passive"",""active""]",,,,,,11330,,,"[""stims/images/horse.png"",""stims/images/squirrel.png"",""stims/images/frog.png"",""stims/images/cat.png"",""stims/images/butterfly.png"",""stims/images/duck.png"",""stims/images/cow.png"",""stims/images/wolf.png""]",,,,,familiar,,,stims/images/butterfly.png,,,,,right,"[""stims/images/duck.png"",""stims/images/butterfly.png""]","[""stims/audio/its_duck.wav"",""stims/audio/its_butterfly.wav""]","[""duck"",""butterfly""]",0,0,stims/audio/its_duck.wav,"[""stims/images/butterfly.png"",""stims/images/duck.png""]"
coact-grid-choice-audio,67,436224,0.0-67.0,,,"[""active"",""passive"",""passive"",""active""]",,,,,,3000,,,,,,,,familiar,,,stims/images/butterfly.png,,,,,right,,,,0,,stims/audio/its_duck.wav,
coact-grid,68,440477,0.0-68.0,,,"[""active"",""passive"",""passive"",""active""]",,,,,,2948,,,"[""stims/images/frog.png"",""stims/images/cow.png"",""stims/images/duck.png"",""stims/images/squirrel.png"",""stims/images/wolf.png"",""stims/images/butterfly.png"",""stims/images/cat.png"",""stims/images/horse.png""]",,,,,familiar,,,,"[2,4]","[""stims/images/duck.png"",""stims/images/wolf.png""]","[""duck"",""wolf""]","[""stims/audio/its_duck.wav"",""stims/audio/its_wolf.wav""]",left,"[""stims/images/duck.png"",""stims/images/wolf.png""]","[""stims/audio/its_duck.wav"",""stims/audio/its_wolf.wav""]","[""duck"",""wolf""]",1,,,
coact-grid-choice,69,444924,0.0-69.0,,,"[""active"",""passive"",""passive"",""active""]",,,,,,4446,,,"[""stims/images/frog.png"",""stims/images/cow.png"",""stims/images/duck.png"",""stims/images/squirrel.png"",""stims/images/wolf.png"",""stims/images/butterfly.png"",""stims/images/cat.png"",""stims/images/horse.png""]",,,,,familiar,,,stims/images/duck.png,,,,,left,"[""stims/images/duck.png"",""stims/images/wolf.png""]","[""stims/audio/its_duck.wav"",""stims/audio/its_wolf.wav""]","[""duck"",""wolf""]",1,0,stims/audio/its_duck.wav,"[""stims/images/duck.png"",""stims/images/wolf.png""]"
coact-grid-choice-audio,70,447933,0.0-70.0,,,"[""active"",""passive"",""passive"",""active""]",,,,,,3000,,,,,,,,familiar,,,stims/images/duck.png,,,,,left,,,,1,,stims/audio/its_duck.wav,
coact-grid,71,453160,0.0-71.0,,,"[""active"",""passive"",""passive"",""active""]",,,,,,3921,,,"[""stims/images/zebra.png"",""stims/images/cormorant.png"",""stims/images/pig.png"",""stims/images/aardvark.png"",""stims/images/echidna.png"",""stims/images/hippopotamus.png"",""stims/images/antelope.png"",""stims/images/porcupine.png""]",,,,,2,,,,"[0,7]","[""stims/images/zebra.png"",""stims/images/porcupine.png""]","[""zebra"",""porcupine""]","[""stims/audio/its_zebra.wav"",""stims/audio/its_porcupine.wav""]",left,"[""stims/images/zebra.png"",""stims/images/porcupine.png""]","[""stims/audio/its_zebra.wav"",""stims/audio/its_porcupine.wav""]","[""zebra"",""porcupine""]",0,,,
coact-grid-choice,72,456130,0.0-72.0,,,"[""active"",""passive"",""passive"",""active""]",,,,,,2969,,,"[""stims/images/zebra.png"",""stims/images/cormorant.png"",""stims/images/pig.png"",""stims/images/aardvark.png"",""stims/images/echidna.png"",""stims/images/hippopotamus.png"",""stims/images/antelope.png"",""stims/images/porcupine.png""]",,,,,2,,,stims/images/zebra.png,,,,,left,"[""stims/images/zebra.png"",""stims/images/porcupine.png""]","[""stims/audio/its_zebra.wav"",""stims/audio/its_porcupine.wav""]","[""zebra"",""porcupine""]",0,0,stims/audio/its_zebra.wav,"[""stims/images/zebra.png"",""stims/images/porcupine.png""]"
coact-grid-choice-audio,73,459138,0.0-73.0,,,"[""active"",""passive"",""passive"",""active""]",,,,,,3000,,,,,,,,2,,,stims/images/zebra.png,,,,,left,,,,0,,stims/audio/its_zebra.wav,
coact-grid,74,463666,0.0-74.0,,,"[""active"",""passive"",""passive"",""active""]",,,,,,3222,,,"[""stims/images/cormorant.png"",""stims/images/hippopotamus.png"",""stims/images/echidna.png"",""stims/images/pig.png"",""stims/images/zebra.png"",""stims/images/antelope.png"",""stims/images/porcupine.png"",""stims/images/aardvark.png""]",,,,,2,,,,"[2,4]","[""stims/images/echidna.png"",""stims/images/zebra.png""]","[""echidna"",""zebra""]","[""stims/audio/thats_echidna.wav"",""stims/audio/thats_zebra.wav""]",right,"[""stims/images/zebra.png"",""stims/images/echidna.png""]","[""stims/audio/thats_zebra.wav"",""stims/audio/thats_echidna.wav""]","[""zebra"",""echidna""]",1,,,
coact-grid-choice,75,470021,0.0-75.0,,,"[""active"",""passive"",""passive"",""active""]",,,,,,6354,,,"[""stims/images/cormorant.png"",""stims/images/hippopotamus.png"",""stims/images/echidna.png"",""stims/images/pig.png"",""stims/images/zebra.png"",""stims/images/antelope.png"",""stims/images/porcupine.png"",""stims/images/aardvark.png""]",,,,,2,,,stims/images/echidna.png,,,,,right,"[""stims/images/zebra.png"",""stims/images/echidna.png""]","[""stims/audio/thats_zebra.wav"",""stims/audio/thats_echidna.wav""]","[""zebra"",""echidna""]",1,0,stims/audio/thats_zebra.wav,"[""stims/images/echidna.png"",""stims/images/zebra.png""]"
coact-grid-choice-audio,76,473029,0.0-76.0,,,"[""active"",""passive"",""passive"",""active""]",,,,,,3000,,,,,,,,2,,,stims/images/echidna.png,,,,,right,,,,1,,stims/audio/thats_zebra.wav,
coact-grid,77,476505,0.0-77.0,,,"[""active"",""passive"",""passive"",""active""]",,,,,,2170,,,"[""stims/images/hippopotamus.png"",""stims/images/echidna.png"",""stims/images/antelope.png"",""stims/images/pig.png"",""stims/images/porcupine.png"",""stims/images/cormorant.png"",""stims/images/zebra.png"",""stims/images/aardvark.png""]",,,,,2,,,,"[6,2]","[""stims/images/zebra.png"",""stims/images/antelope.png""]","[""zebra"",""antelope""]","[""stims/audio/thats_zebra.wav"",""stims/audio/thats_antelope.wav""]",right,"[""stims/images/antelope.png"",""stims/images/zebra.png""]","[""stims/audio/thats_antelope.wav"",""stims/audio/thats_zebra.wav""]","[""antelope"",""zebra""]",2,,,
coact-grid-choice,78,480628,0.0-78.0,,,"[""active"",""passive"",""passive"",""active""]",,,,,,4121,,,"[""stims/images/hippopotamus.png"",""stims/images/echidna.png"",""stims/images/antelope.png"",""stims/images/pig.png"",""stims/images/porcupine.png"",""stims/images/cormorant.png"",""stims/images/zebra.png"",""stims/images/aardvark.png""]",,,,,2,,,stims/images/zebra.png,,,,,right,"[""stims/images/antelope.png"",""stims/images/zebra.png""]","[""stims/audio/thats_antelope.wav"",""stims/audio/thats_zebra.wav""]","[""antelope"",""zebra""]",2,0,stims/audio/thats_antelope.wav,"[""stims/images/zebra.png"",""stims/images/antelope.png""]"
coact-grid-choice-audio,79,483636,0.0-79.0,,,"[""active"",""passive"",""passive"",""active""]",,,,,,3000,,,,,,,,2,,,stims/images/zebra.png,,,,,right,,,,2,,stims/audio/thats_antelope.wav,
coact-grid,80,487123,0.0-80.0,,,"[""active"",""passive"",""passive"",""active""]",,,,,,2180,,,"[""stims/images/zebra.png"",""stims/images/pig.png"",""stims/images/cormorant.png"",""stims/images/aardvark.png"",""stims/images/porcupine.png"",""stims/images/antelope.png"",""stims/images/echidna.png"",""stims/images/hippopotamus.png""]",,,,,2,,,,"[2,7]","[""stims/images/cormorant.png"",""stims/images/hippopotamus.png""]","[""cormorant"",""hippopotamus""]","[""stims/audio/its_cormorant.wav"",""stims/audio/its_hippopotamus.wav""]",left,"[""stims/images/cormorant.png"",""stims/images/hippopotamus.png""]","[""stims/audio/its_cormorant.wav"",""stims/audio/its_hippopotamus.wav""]","[""cormorant"",""hippopotamus""]",3,,,
coact-grid-choice,81,489866,0.0-81.0,,,"[""active"",""passive"",""passive"",""active""]",,,,,,2744,,,"[""stims/images/zebra.png"",""stims/images/pig.png"",""stims/images/cormorant.png"",""stims/images/aardvark.png"",""stims/images/porcupine.png"",""stims/images/antelope.png"",""stims/images/echidna.png"",""stims/images/hippopotamus.png""]",,,,,2,,,stims/images/cormorant.png,,,,,left,"[""stims/images/cormorant.png"",""stims/images/hippopotamus.png""]","[""stims/audio/its_cormorant.wav"",""stims/audio/its_hippopotamus.wav""]","[""cormorant"",""hippopotamus""]",3,0,stims/audio/its_cormorant.wav,"[""stims/images/cormorant.png"",""stims/images/hippopotamus.png""]"
coact-grid-choice-audio,82,492874,0.0-82.0,,,"[""active"",""passive"",""passive"",""active""]",,,,,,3000,,,,,,,,2,,,stims/images/cormorant.png,,,,,left,,,,3,,stims/audio/its_cormorant.wav,
coact-grid,83,496168,0.0-83.0,,,"[""active"",""passive"",""passive"",""active""]",,,,,,1990,,,"[""stims/images/echidna.png"",""stims/images/porcupine.png"",""stims/images/zebra.png"",""stims/images/pig.png"",""stims/images/cormorant.png"",""stims/images/aardvark.png"",""stims/images/hippopotamus.png"",""stims/images/antelope.png""]",,,,,2,,,,"[6,0]","[""stims/images/hippopotamus.png"",""stims/images/echidna.png""]","[""hippopotamus"",""echidna""]","[""stims/audio/thats_hippopotamus.wav"",""stims/audio/thats_echidna.wav""]",left,"[""stims/images/hippopotamus.png"",""stims/images/echidna.png""]","[""stims/audio/thats_hippopotamus.wav"",""stims/audio/thats_echidna.wav""]","[""hippopotamus"",""echidna""]",4,,,
coact-grid-choice,84,499706,0.0-84.0,,,"[""active"",""passive"",""passive"",""active""]",,,,,,3537,,,"[""stims/images/echidna.png"",""stims/images/porcupine.png"",""stims/images/zebra.png"",""stims/images/pig.png"",""stims/images/cormorant.png"",""stims/images/aardvark.png"",""stims/images/hippopotamus.png"",""stims/images/antelope.png""]",,,,,2,,,stims/images/echidna.png,,,,,left,"[""stims/images/hippopotamus.png"",""stims/images/echidna.png""]","[""stims/audio/thats_hippopotamus.wav"",""stims/audio/thats_echidna.wav""]","[""hippopotamus"",""echidna""]",4,1,stims/audio/thats_echidna.wav,"[""stims/images/hippopotamus.png"",""stims/images/echidna.png""]"
coact-grid-choice-audio,85,502713,0.0-85.0,,,"[""active"",""passive"",""passive"",""active""]",,,,,,3000,,,,,,,,2,,,stims/images/echidna.png,,,,,left,,,,4,,stims/audio/thats_echidna.wav,
coact-grid,86,505874,0.0-86.0,,,"[""active"",""passive"",""passive"",""active""]",,,,,,1857,,,"[""stims/images/antelope.png"",""stims/images/porcupine.png"",""stims/images/zebra.png"",""stims/images/echidna.png"",""stims/images/aardvark.png"",""stims/images/pig.png"",""stims/images/hippopotamus.png"",""stims/images/cormorant.png""]",,,,,2,,,,"[7,5]","[""stims/images/cormorant.png"",""stims/images/pig.png""]","[""cormorant"",""pig""]","[""stims/audio/its_cormorant.wav"",""stims/audio/its_pig.wav""]",right,"[""stims/images/pig.png"",""stims/images/cormorant.png""]","[""stims/audio/its_pig.wav"",""stims/audio/its_cormorant.wav""]","[""pig"",""cormorant""]",5,,,
coact-grid-choice,87,509144,0.0-87.0,,,"[""active"",""passive"",""passive"",""active""]",,,,,,3269,,,"[""stims/images/antelope.png"",""stims/images/porcupine.png"",""stims/images/zebra.png"",""stims/images/echidna.png"",""stims/images/aardvark.png"",""stims/images/pig.png"",""stims/images/hippopotamus.png"",""stims/images/cormorant.png""]",,,,,2,,,stims/images/pig.png,,,,,right,"[""stims/images/pig.png"",""stims/images/cormorant.png""]","[""stims/audio/its_pig.wav"",""stims/audio/its_cormorant.wav""]","[""pig"",""cormorant""]",5,1,stims/audio/its_cormorant.wav,"[""stims/images/cormorant.png"",""stims/images/pig.png""]"
coact-grid-choice-audio,88,512152,0.0-88.0,,,"[""active"",""passive"",""passive"",""active""]",,,,,,3000,,,,,,,,2,,,stims/images/pig.png,,,,,right,,,,5,,stims/audio/its_cormorant.wav,
html-button-response,89,545500,0.0-89.0,,,"[""active"",""passive"",""passive"",""active""]",,,,,,33348,,0,,,,,,,,,,,,,,,,,,,,,
coact-test-prompt,90,549169,0.0-90.0,,,"[""active"",""passive"",""passive"",""active""]",,,,,,3668,,,"[""stims/images/squirrel.png"",""stims/images/cat.png"",""stims/images/duck.png"",""stims/images/horse.png"",""stims/images/cow.png"",""stims/images/frog.png"",""stims/images/wolf.png"",""stims/images/butterfly.png""]",butterfly,stims/images/butterfly.png,familiar,practice_posttest,familiar,,,,,,,,,,,,,,,
coact-test,91,552144,0.0-91.0,,,"[""active"",""passive"",""passive"",""active""]",,,,,,777591.2267,,,"[""stims/images/squirrel.png"",""stims/images/cat.png"",""stims/images/duck.png"",""stims/images/horse.png"",""stims/images/cow.png"",""stims/images/frog.png"",""stims/images/wolf.png"",""stims/images/butterfly.png""]",butterfly,stims/images/butterfly.png,familiar,practice_posttest,familiar,stims/audio/wheres_butterfly.wav,7,stims/images/butterfly.png,,,,,,,,,,,,
coact-test-prompt,92,554690,0.0-92.0,,,"[""active"",""passive"",""passive"",""active""]",,,,,,2545,,,"[""stims/images/aardvark.png"",""stims/images/hippopotamus.png"",""stims/images/echidna.png"",""stims/images/antelope.png"",""stims/images/pig.png"",""stims/images/porcupine.png"",""stims/images/zebra.png"",""stims/images/cormorant.png""]",echidna,stims/images/echidna.png,unfamiliar,posttest,2,,,,,,,,,,,,,,,
coact-test,93,558718,0.0-93.0,,,"[""active"",""passive"",""passive"",""active""]",,,,,,784160.7067,,,"[""stims/images/aardvark.png"",""stims/images/hippopotamus.png"",""stims/images/echidna.png"",""stims/images/antelope.png"",""stims/images/pig.png"",""stims/images/porcupine.png"",""stims/images/zebra.png"",""stims/images/cormorant.png""]",echidna,stims/images/echidna.png,unfamiliar,posttest,2,stims/audio/find_echidna.wav,2,stims/images/echidna.png,,,,,,,,,,,,
coact-test-prompt,94,561225,0.0-94.0,,,"[""active"",""passive"",""passive"",""active""]",,,,,,2506,,,"[""stims/images/elephant.png"",""stims/images/sloth.png"",""stims/images/nyala.png"",""stims/images/tiger.png"",""stims/images/dolphin.png"",""stims/images/lynx.png"",""stims/images/tarsier.png"",""stims/images/raccoon.png""]",elephant,stims/images/elephant.png,familiar,posttest,1,,,,,,,,,,,,,,,
coact-test,95,566379,0.0-95.0,,,"[""active"",""passive"",""passive"",""active""]",,,,,,791816.1707,,,"[""stims/images/elephant.png"",""stims/images/sloth.png"",""stims/images/nyala.png"",""stims/images/tiger.png"",""stims/images/dolphin.png"",""stims/images/lynx.png"",""stims/images/tarsier.png"",""stims/images/raccoon.png""]",elephant,stims/images/elephant.png,familiar,posttest,1,stims/audio/find_elephant.wav,0,stims/images/elephant.png,,,,,,,,,,,,
coact-test-prompt,96,568352,0.0-96.0,,,"[""active"",""passive"",""passive"",""active""]",,,,,,1971,,,"[""stims/images/hippopotamus.png"",""stims/images/aardvark.png"",""stims/images/cormorant.png"",""stims/images/antelope.png"",""stims/images/zebra.png"",""stims/images/porcupine.png"",""stims/images/echidna.png"",""stims/images/pig.png""]",aardvark,stims/images/aardvark.png,somewhat unfamiliar,posttest,2,,,,,,,,,,,,,,,
coact-test,97,574093,0.0-97.0,,,"[""active"",""passive"",""passive"",""active""]",,,,,,799524.0453,,,"[""stims/images/hippopotamus.png"",""stims/images/aardvark.png"",""stims/images/cormorant.png"",""stims/images/antelope.png"",""stims/images/zebra.png"",""stims/images/porcupine.png"",""stims/images/echidna.png"",""stims/images/pig.png""]",aardvark,stims/images/aardvark.png,somewhat unfamiliar,posttest,2,stims/audio/find_aardvark.wav,0,stims/images/hippopotamus.png,,,,,,,,,,,,
coact-test-prompt,98,576884,0.0-98.0,,,"[""active"",""passive"",""passive"",""active""]",,,,,,2790,,,"[""stims/images/lynx.png"",""stims/images/tarsier.png"",""stims/images/nyala.png"",""stims/images/tiger.png"",""stims/images/sloth.png"",""stims/images/raccoon.png"",""stims/images/elephant.png"",""stims/images/dolphin.png""]",lynx,stims/images/lynx.png,somewhat unfamiliar,posttest,1,,,,,,,,,,,,,,,
coact-test,99,581896,0.0-99.0,,,"[""active"",""passive"",""passive"",""active""]",,,,,,807317.512,,,"[""stims/images/lynx.png"",""stims/images/tarsier.png"",""stims/images/nyala.png"",""stims/images/tiger.png"",""stims/images/sloth.png"",""stims/images/raccoon.png"",""stims/images/elephant.png"",""stims/images/dolphin.png""]",lynx,stims/images/lynx.png,somewhat unfamiliar,posttest,1,stims/audio/wheres_lynx.wav,0,stims/images/lynx.png,,,,,,,,,,,,
coact-test-prompt,100,582344,0.0-100.0,,,"[""active"",""passive"",""passive"",""active""]",,,,,,447,,,"[""stims/images/lynx.png"",""stims/images/elephant.png"",""stims/images/nyala.png"",""stims/images/tiger.png"",""stims/images/tarsier.png"",""stims/images/dolphin.png"",""stims/images/sloth.png"",""stims/images/raccoon.png""]",tiger,stims/images/tiger.png,familiar,posttest,1,,,,,,,,,,,,,,,
coact-test,101,585491,0.0-101.0,,,"[""active"",""passive"",""passive"",""active""]",,,,,,810907.0507,,,"[""stims/images/lynx.png"",""stims/images/elephant.png"",""stims/images/nyala.png"",""stims/images/tiger.png"",""stims/images/tarsier.png"",""stims/images/dolphin.png"",""stims/images/sloth.png"",""stims/images/raccoon.png""]",tiger,stims/images/tiger.png,familiar,posttest,1,stims/audio/wheres_tiger.wav,3,stims/images/tiger.png,,,,,,,,,,,,
coact-test-prompt,102,587426,0.0-102.0,,,"[""active"",""passive"",""passive"",""active""]",,,,,,1934,,,"[""stims/images/lynx.png"",""stims/images/dolphin.png"",""stims/images/elephant.png"",""stims/images/nyala.png"",""stims/images/tiger.png"",""stims/images/raccoon.png"",""stims/images/sloth.png"",""stims/images/tarsier.png""]",raccoon,stims/images/raccoon.png,somewhat familiar,posttest,1,,,,,,,,,,,,,,,
coact-test,103,591661,0.0-103.0,,,"[""active"",""passive"",""passive"",""active""]",,,,,,817072.9707,,,"[""stims/images/lynx.png"",""stims/images/dolphin.png"",""stims/images/elephant.png"",""stims/images/nyala.png"",""stims/images/tiger.png"",""stims/images/raccoon.png"",""stims/images/sloth.png"",""stims/images/tarsier.png""]",raccoon,stims/images/raccoon.png,somewhat familiar,posttest,1,stims/audio/find_raccoon.wav,5,stims/images/raccoon.png,,,,,,,,,,,,
coact-test-prompt,104,592511,0.0-104.0,,,"[""active"",""passive"",""passive"",""active""]",,,,,,849,,,"[""stims/images/lynx.png"",""stims/images/tiger.png"",""stims/images/raccoon.png"",""stims/images/elephant.png"",""stims/images/dolphin.png"",""stims/images/nyala.png"",""stims/images/sloth.png"",""stims/images/tarsier.png""]",tarsier,stims/images/tarsier.png,unfamiliar,posttest,1,,,,,,,,,,,,,,,
coact-test,105,598057,0.0-105.0,,,"[""active"",""passive"",""passive"",""active""]",,,,,,823463.8853,,,"[""stims/images/lynx.png"",""stims/images/tiger.png"",""stims/images/raccoon.png"",""stims/images/elephant.png"",""stims/images/dolphin.png"",""stims/images/nyala.png"",""stims/images/sloth.png"",""stims/images/tarsier.png""]",tarsier,stims/images/tarsier.png,unfamiliar,posttest,1,stims/audio/find_tarsier.wav,7,stims/images/tarsier.png,,,,,,,,,,,,
coact-test-prompt,106,598999,0.0-106.0,,,"[""active"",""passive"",""passive"",""active""]",,,,,,940,,,"[""stims/images/lynx.png"",""stims/images/elephant.png"",""stims/images/tiger.png"",""stims/images/sloth.png"",""stims/images/tarsier.png"",""stims/images/dolphin.png"",""stims/images/nyala.png"",""stims/images/raccoon.png""]",nyala,stims/images/nyala.png,unfamiliar,posttest,1,,,,,,,,,,,,,,,
coact-test,107,605855,0.0-107.0,,,"[""active"",""passive"",""passive"",""active""]",,,,,,831256.3947,,,"[""stims/images/lynx.png"",""stims/images/elephant.png"",""stims/images/tiger.png"",""stims/images/sloth.png"",""stims/images/tarsier.png"",""stims/images/dolphin.png"",""stims/images/nyala.png"",""stims/images/raccoon.png""]",nyala,stims/images/nyala.png,unfamiliar,posttest,1,stims/audio/wheres_nyala.wav,4,stims/images/tarsier.png,,,,,,,,,,,,
coact-test-prompt,108,606069,0.0-108.0,,,"[""active"",""passive"",""passive"",""active""]",,,,,,213,,,"[""stims/images/lynx.png"",""stims/images/sloth.png"",""stims/images/tiger.png"",""stims/images/raccoon.png"",""stims/images/tarsier.png"",""stims/images/dolphin.png"",""stims/images/nyala.png"",""stims/images/elephant.png""]",dolphin,stims/images/dolphin.png,somewhat familiar,posttest,1,,,,,,,,,,,,,,,
coact-test,109,610694,0.0-109.0,,,"[""active"",""passive"",""passive"",""active""]",,,,,,836088.3307,,,"[""stims/images/lynx.png"",""stims/images/sloth.png"",""stims/images/tiger.png"",""stims/images/raccoon.png"",""stims/images/tarsier.png"",""stims/images/dolphin.png"",""stims/images/nyala.png"",""stims/images/elephant.png""]",dolphin,stims/images/dolphin.png,somewhat familiar,posttest,1,stims/audio/wheres_dolphin.wav,5,stims/images/dolphin.png,,,,,,,,,,,,
coact-test-prompt,110,612298,0.0-110.0,,,"[""active"",""passive"",""passive"",""active""]",,,,,,1603,,,"[""stims/images/zebra.png"",""stims/images/cormorant.png"",""stims/images/hippopotamus.png"",""stims/images/antelope.png"",""stims/images/aardvark.png"",""stims/images/porcupine.png"",""stims/images/pig.png"",""stims/images/echidna.png""]",hippopotamus,stims/images/hippopotamus.png,somewhat familiar,posttest,2,,,,,,,,,,,,,,,
coact-test,111,621244,0.0-111.0,,,"[""active"",""passive"",""passive"",""active""]",,,,,,846633.0987,,,"[""stims/images/zebra.png"",""stims/images/cormorant.png"",""stims/images/hippopotamus.png"",""stims/images/antelope.png"",""stims/images/aardvark.png"",""stims/images/porcupine.png"",""stims/images/pig.png"",""stims/images/echidna.png""]",hippopotamus,stims/images/hippopotamus.png,somewhat familiar,posttest,2,stims/audio/wheres_hippopotamus.wav,2,stims/images/hippopotamus.png,,,,,,,,,,,,
coact-test-prompt,112,622411,0.0-112.0,,,"[""active"",""passive"",""passive"",""active""]",,,,,,1166,,,"[""stims/images/porcupine.png"",""stims/images/pig.png"",""stims/images/hippopotamus.png"",""stims/images/zebra.png"",""stims/images/antelope.png"",""stims/images/echidna.png"",""stims/images/cormorant.png"",""stims/images/aardvark.png""]",antelope,stims/images/antelope.png,somewhat unfamiliar,posttest,2,,,,,,,,,,,,,,,
coact-test,113,627379,0.0-113.0,,,"[""active"",""passive"",""passive"",""active""]",,,,,,852757.984,,,"[""stims/images/porcupine.png"",""stims/images/pig.png"",""stims/images/hippopotamus.png"",""stims/images/zebra.png"",""stims/images/antelope.png"",""stims/images/echidna.png"",""stims/images/cormorant.png"",""stims/images/aardvark.png""]",antelope,stims/images/antelope.png,somewhat unfamiliar,posttest,2,stims/audio/wheres_antelope.wav,4,stims/images/antelope.png,,,,,,,,,,,,
coact-test-prompt,114,627463,0.0-114.0,,,"[""active"",""passive"",""passive"",""active""]",,,,,,83,,,"[""stims/images/pig.png"",""stims/images/zebra.png"",""stims/images/aardvark.png"",""stims/images/echidna.png"",""stims/images/hippopotamus.png"",""stims/images/cormorant.png"",""stims/images/porcupine.png"",""stims/images/antelope.png""]",pig,stims/images/pig.png,familiar,posttest,2,,,,,,,,,,,,,,,
coact-test,115,633087,0.0-115.0,,,"[""active"",""passive"",""passive"",""active""]",,,,,,858459.936,,,"[""stims/images/pig.png"",""stims/images/zebra.png"",""stims/images/aardvark.png"",""stims/images/echidna.png"",""stims/images/hippopotamus.png"",""stims/images/cormorant.png"",""stims/images/porcupine.png"",""stims/images/antelope.png""]",pig,stims/images/pig.png,familiar,posttest,2,stims/audio/find_pig.wav,0,stims/images/pig.png,,,,,,,,,,,,
coact-test-prompt,116,634411,0.0-116.0,,,"[""active"",""passive"",""passive"",""active""]",,,,,,1323,,,"[""stims/images/porcupine.png"",""stims/images/pig.png"",""stims/images/zebra.png"",""stims/images/echidna.png"",""stims/images/hippopotamus.png"",""stims/images/cormorant.png"",""stims/images/aardvark.png"",""stims/images/antelope.png""]",porcupine,stims/images/porcupine.png,somewhat familiar,posttest,2,,,,,,,,,,,,,,,
coact-test,117,640404,0.0-117.0,,,"[""active"",""passive"",""passive"",""active""]",,,,,,865770.984,,,"[""stims/images/porcupine.png"",""stims/images/pig.png"",""stims/images/zebra.png"",""stims/images/echidna.png"",""stims/images/hippopotamus.png"",""stims/images/cormorant.png"",""stims/images/aardvark.png"",""stims/images/antelope.png""]",porcupine,stims/images/porcupine.png,somewhat familiar,posttest,2,stims/audio/find_porcupine.wav,0,stims/images/porcupine.png,,,,,,,,,,,,
coact-test-prompt,118,641812,0.0-118.0,,,"[""active"",""passive"",""passive"",""active""]",,,,,,1406,,,"[""stims/images/tiger.png"",""stims/images/tarsier.png"",""stims/images/lynx.png"",""stims/images/raccoon.png"",""stims/images/sloth.png"",""stims/images/elephant.png"",""stims/images/dolphin.png"",""stims/images/nyala.png""]",sloth,stims/images/sloth.png,somewhat unfamiliar,posttest,1,,,,,,,,,,,,,,,
coact-test,119,647528,0.0-119.0,,,"[""active"",""passive"",""passive"",""active""]",,,,,,872888.584,,,"[""stims/images/tiger.png"",""stims/images/tarsier.png"",""stims/images/lynx.png"",""stims/images/raccoon.png"",""stims/images/sloth.png"",""stims/images/elephant.png"",""stims/images/dolphin.png"",""stims/images/nyala.png""]",sloth,stims/images/sloth.png,somewhat unfamiliar,posttest,1,stims/audio/find_sloth.wav,4,stims/images/sloth.png,,,,,,,,,,,,
coact-test-prompt,120,648995,0.0-120.0,,,"[""active"",""passive"",""passive"",""active""]",,,,,,1465,,,"[""stims/images/zebra.png"",""stims/images/cormorant.png"",""stims/images/echidna.png"",""stims/images/porcupine.png"",""stims/images/hippopotamus.png"",""stims/images/aardvark.png"",""stims/images/pig.png"",""stims/images/antelope.png""]",zebra,stims/images/zebra.png,familiar,posttest,2,,,,,,,,,,,,,,,
coact-test,121,654964,0.0-121.0,,,"[""active"",""passive"",""passive"",""active""]",,,,,,880316.4,,,"[""stims/images/zebra.png"",""stims/images/cormorant.png"",""stims/images/echidna.png"",""stims/images/porcupine.png"",""stims/images/hippopotamus.png"",""stims/images/aardvark.png"",""stims/images/pig.png"",""stims/images/antelope.png""]",zebra,stims/images/zebra.png,familiar,posttest,2,stims/audio/wheres_zebra.wav,0,stims/images/zebra.png,,,,,,,,,,,,
coact-test-prompt,122,656566,0.0-122.0,,,"[""active"",""passive"",""passive"",""active""]",,,,,,1602,,,"[""stims/images/porcupine.png"",""stims/images/antelope.png"",""stims/images/pig.png"",""stims/images/aardvark.png"",""stims/images/hippopotamus.png"",""stims/images/zebra.png"",""stims/images/cormorant.png"",""stims/images/echidna.png""]",cormorant,stims/images/cormorant.png,unfamiliar,posttest,2,,,,,,,,,,,,,,,
coact-test,123,661592,0.0-123.0,,,"[""active"",""passive"",""passive"",""active""]",,,,,,886938.8293,,,"[""stims/images/porcupine.png"",""stims/images/antelope.png"",""stims/images/pig.png"",""stims/images/aardvark.png"",""stims/images/hippopotamus.png"",""stims/images/zebra.png"",""stims/images/cormorant.png"",""stims/images/echidna.png""]",cormorant,stims/images/cormorant.png,unfamiliar,posttest,2,stims/audio/wheres_cormorant.wav,7,stims/images/echidna.png,,,,,,,,,,,,
html-button-response,124,661851,0.0-124.0,,,"[""active"",""passive"",""passive"",""active""]",,,,,,258,,0,,,,,,,,,,,,,,,,,,,,,
coact-test-prompt,125,744932,0.0-125.0,,,"[""active"",""passive"",""passive"",""active""]",,,,,,83084,,,"[""stims/images/squirrel.png"",""stims/images/cat.png"",""stims/images/horse.png"",""stims/images/wolf.png"",""stims/images/duck.png"",""stims/images/frog.png"",""stims/images/cow.png"",""stims/images/butterfly.png""]",wolf,stims/images/wolf.png,familiar,practice_pretest,familiar,,,,,,,,,,,,,,,
coact-test,126,748882,0.0-126.0,,,"[""active"",""passive"",""passive"",""active""]",,,,,,974143.4613,,,"[""stims/images/squirrel.png"",""stims/images/cat.png"",""stims/images/horse.png"",""stims/images/wolf.png"",""stims/images/duck.png"",""stims/images/frog.png"",""stims/images/cow.png"",""stims/images/butterfly.png""]",wolf,stims/images/wolf.png,familiar,practice_pretest,familiar,stims/audio/find_wolf.wav,3,stims/images/wolf.png,,,,,,,,,,,,
coact-test-prompt,127,750844,0.0-127.0,,,"[""active"",""passive"",""passive"",""active""]",,,,,,1961,,,"[""stims/images/rabbit.png"",""stims/images/jaguar.png"",""stims/images/pangolin.png"",""stims/images/turtle.png"",""stims/images/lobster.png"",""stims/images/wombat.png"",""stims/images/chameleon.png"",""stims/images/armadillo.png""]",armadillo,stims/images/armadillo.png,somewhat unfamiliar,pretest,3,,,,,,,,,,,,,,,
coact-test,128,754913,0.0-128.0,,,"[""active"",""passive"",""passive"",""active""]",,,,,,980169.5493,,,"[""stims/images/rabbit.png"",""stims/images/jaguar.png"",""stims/images/pangolin.png"",""stims/images/turtle.png"",""stims/images/lobster.png"",""stims/images/wombat.png"",""stims/images/chameleon.png"",""stims/images/armadillo.png""]",armadillo,stims/images/armadillo.png,somewhat unfamiliar,pretest,3,stims/audio/find_armadillo.wav,6,stims/images/chameleon.png,,,,,,,,,,,,
coact-test-prompt,129,756264,0.0-129.0,,,"[""active"",""passive"",""passive"",""active""]",,,,,,1350,,,"[""stims/images/jaguar.png"",""stims/images/turtle.png"",""stims/images/lobster.png"",""stims/images/chameleon.png"",""stims/images/rabbit.png"",""stims/images/pangolin.png"",""stims/images/wombat.png"",""stims/images/armadillo.png""]",lobster,stims/images/lobster.png,somewhat familiar,pretest,3,,,,,,,,,,,,,,,
coact-test,130,764786,0.0-130.0,,,"[""active"",""passive"",""passive"",""active""]",,,,,,990037.1307,,,"[""stims/images/jaguar.png"",""stims/images/turtle.png"",""stims/images/lobster.png"",""stims/images/chameleon.png"",""stims/images/rabbit.png"",""stims/images/pangolin.png"",""stims/images/wombat.png"",""stims/images/armadillo.png""]",lobster,stims/images/lobster.png,somewhat familiar,pretest,3,stims/audio/wheres_lobster.wav,1,stims/images/turtle.png,,,,,,,,,,,,
coact-test-prompt,131,764994,0.0-131.0,,,"[""active"",""passive"",""passive"",""active""]",,,,,,206,,,"[""stims/images/armadillo.png"",""stims/images/rabbit.png"",""stims/images/turtle.png"",""stims/images/chameleon.png"",""stims/images/jaguar.png"",""stims/images/lobster.png"",""stims/images/wombat.png"",""stims/images/pangolin.png""]",jaguar,stims/images/jaguar.png,somewhat familiar,pretest,3,,,,,,,,,,,,,,,
coact-test,132,770404,0.0-132.0,,,"[""active"",""passive"",""passive"",""active""]",,,,,,995646.4,,,"[""stims/images/armadillo.png"",""stims/images/rabbit.png"",""stims/images/turtle.png"",""stims/images/chameleon.png"",""stims/images/jaguar.png"",""stims/images/lobster.png"",""stims/images/wombat.png"",""stims/images/pangolin.png""]",jaguar,stims/images/jaguar.png,somewhat familiar,pretest,3,stims/audio/wheres_jaguar.wav,4,stims/images/jaguar.png,,,,,,,,,,,,
coact-test-prompt,133,771437,0.0-133.0,,,"[""active"",""passive"",""passive"",""active""]",,,,,,1031,,,"[""stims/images/lobster.png"",""stims/images/pangolin.png"",""stims/images/armadillo.png"",""stims/images/chameleon.png"",""stims/images/turtle.png"",""stims/images/wombat.png"",""stims/images/rabbit.png"",""stims/images/jaguar.png""]",chameleon,stims/images/chameleon.png,somewhat unfamiliar,pretest,3,,,,,,,,,,,,,,,
coact-test,134,775558,0.0-134.0,,,"[""active"",""passive"",""passive"",""active""]",,,,,,1000795.957,,,"[""stims/images/lobster.png"",""stims/images/pangolin.png"",""stims/images/armadillo.png"",""stims/images/chameleon.png"",""stims/images/turtle.png"",""stims/images/wombat.png"",""stims/images/rabbit.png"",""stims/images/jaguar.png""]",chameleon,stims/images/chameleon.png,somewhat unfamiliar,pretest,3,stims/audio/wheres_chameleon.wav,3,stims/images/chameleon.png,,,,,,,,,,,,
coact-test-prompt,135,776251,0.0-135.0,,,"[""active"",""passive"",""passive"",""active""]",,,,,,691,,,"[""stims/images/tapir.png"",""stims/images/bear.png"",""stims/images/koala.png"",""stims/images/narwhal.png"",""stims/images/manatee.png"",""stims/images/dog.png"",""stims/images/alpaca.png"",""stims/images/flamingo.png""]",flamingo,stims/images/flamingo.png,somewhat familiar,pretest,4,,,,,,,,,,,,,,,
coact-test,136,780119,0.0-136.0,,,"[""active"",""passive"",""passive"",""active""]",,,,,,1005352.144,,,"[""stims/images/tapir.png"",""stims/images/bear.png"",""stims/images/koala.png"",""stims/images/narwhal.png"",""stims/images/manatee.png"",""stims/images/dog.png"",""stims/images/alpaca.png"",""stims/images/flamingo.png""]",flamingo,stims/images/flamingo.png,somewhat familiar,pretest,4,stims/audio/find_flamingo.wav,7,stims/images/flamingo.png,,,,,,,,,,,,
coact-test-prompt,137,782613,0.0-137.0,,,"[""active"",""passive"",""passive"",""active""]",,,,,,2493,,,"[""stims/images/alpaca.png"",""stims/images/dog.png"",""stims/images/flamingo.png"",""stims/images/tapir.png"",""stims/images/narwhal.png"",""stims/images/manatee.png"",""stims/images/koala.png"",""stims/images/bear.png""]",bear,stims/images/bear.png,familiar,pretest,4,,,,,,,,,,,,,,,
coact-test,138,786282,0.0-138.0,,,"[""active"",""passive"",""passive"",""active""]",,,,,,1011507.781,,,"[""stims/images/alpaca.png"",""stims/images/dog.png"",""stims/images/flamingo.png"",""stims/images/tapir.png"",""stims/images/narwhal.png"",""stims/images/manatee.png"",""stims/images/koala.png"",""stims/images/bear.png""]",bear,stims/images/bear.png,familiar,pretest,4,stims/audio/find_bear.wav,7,stims/images/bear.png,,,,,,,,,,,,
coact-test-prompt,139,787708,0.0-139.0,,,"[""active"",""passive"",""passive"",""active""]",,,,,,1425,,,"[""stims/images/turtle.png"",""stims/images/lobster.png"",""stims/images/pangolin.png"",""stims/images/rabbit.png"",""stims/images/wombat.png"",""stims/images/jaguar.png"",""stims/images/armadillo.png"",""stims/images/chameleon.png""]",wombat,stims/images/wombat.png,unfamiliar,pretest,3,,,,,,,,,,,,,,,
coact-test,140,798161,0.0-140.0,,,"[""active"",""passive"",""passive"",""active""]",,,,,,1023382.685,,,"[""stims/images/turtle.png"",""stims/images/lobster.png"",""stims/images/pangolin.png"",""stims/images/rabbit.png"",""stims/images/wombat.png"",""stims/images/jaguar.png"",""stims/images/armadillo.png"",""stims/images/chameleon.png""]",wombat,stims/images/wombat.png,unfamiliar,pretest,3,stims/audio/wheres_wombat.wav,6,stims/images/armadillo.png,,,,,,,,,,,,
coact-test-prompt,141,798580,0.0-141.0,,,"[""active"",""passive"",""passive"",""active""]",,,,,,418,,,"[""stims/images/koala.png"",""stims/images/bear.png"",""stims/images/tapir.png"",""stims/images/narwhal.png"",""stims/images/dog.png"",""stims/images/flamingo.png"",""stims/images/alpaca.png"",""stims/images/manatee.png""]",koala,stims/images/koala.png,somewhat familiar,pretest,4,,,,,,,,,,,,,,,
coact-test,142,802174,0.0-142.0,,,"[""active"",""passive"",""passive"",""active""]",,,,,,1027383.819,,,"[""stims/images/koala.png"",""stims/images/bear.png"",""stims/images/tapir.png"",""stims/images/narwhal.png"",""stims/images/dog.png"",""stims/images/flamingo.png"",""stims/images/alpaca.png"",""stims/images/manatee.png""]",koala,stims/images/koala.png,somewhat familiar,pretest,4,stims/audio/wheres_koala.wav,0,stims/images/koala.png,,,,,,,,,,,,
coact-test-prompt,143,803233,0.0-143.0,,,"[""active"",""passive"",""passive"",""active""]",,,,,,1058,,,"[""stims/images/lobster.png"",""stims/images/rabbit.png"",""stims/images/wombat.png"",""stims/images/chameleon.png"",""stims/images/armadillo.png"",""stims/images/jaguar.png"",""stims/images/pangolin.png"",""stims/images/turtle.png""]",turtle,stims/images/turtle.png,familiar,pretest,3,,,,,,,,,,,,,,,
coact-test,144,806734,0.0-144.0,,,"[""active"",""passive"",""passive"",""active""]",,,,,,1031941.16,,,"[""stims/images/lobster.png"",""stims/images/rabbit.png"",""stims/images/wombat.png"",""stims/images/chameleon.png"",""stims/images/armadillo.png"",""stims/images/jaguar.png"",""stims/images/pangolin.png"",""stims/images/turtle.png""]",turtle,stims/images/turtle.png,familiar,pretest,3,stims/audio/find_turtle.wav,7,stims/images/turtle.png,,,,,,,,,,,,
coact-test-prompt,145,807450,0.0-145.0,,,"[""active"",""passive"",""passive"",""active""]",,,,,,715,,,"[""stims/images/koala.png"",""stims/images/manatee.png"",""stims/images/dog.png"",""stims/images/bear.png"",""stims/images/tapir.png"",""stims/images/alpaca.png"",""stims/images/narwhal.png"",""stims/images/flamingo.png""]",tapir,stims/images/tapir.png,unfamiliar,pretest,4,,,,,,,,,,,,,,,
coact-test,146,811994,0.0-146.0,,,"[""active"",""passive"",""passive"",""active""]",,,,,,1037195.944,,,"[""stims/images/koala.png"",""stims/images/manatee.png"",""stims/images/dog.png"",""stims/images/bear.png"",""stims/images/tapir.png"",""stims/images/alpaca.png"",""stims/images/narwhal.png"",""stims/images/flamingo.png""]",tapir,stims/images/tapir.png,unfamiliar,pretest,4,stims/audio/wheres_tapir.wav,6,stims/images/narwhal.png,,,,,,,,,,,,
coact-test-prompt,147,813445,0.0-147.0,,,"[""active"",""passive"",""passive"",""active""]",,,,,,1449,,,"[""stims/images/koala.png"",""stims/images/manatee.png"",""stims/images/alpaca.png"",""stims/images/dog.png"",""stims/images/tapir.png"",""stims/images/bear.png"",""stims/images/flamingo.png"",""stims/images/narwhal.png""]",alpaca,stims/images/alpaca.png,somewhat unfamiliar,pretest,4,,,,,,,,,,,,,,,
coact-test,148,817855,0.0-148.0,,,"[""active"",""passive"",""passive"",""active""]",,,,,,1043050.949,,,"[""stims/images/koala.png"",""stims/images/manatee.png"",""stims/images/alpaca.png"",""stims/images/dog.png"",""stims/images/tapir.png"",""stims/images/bear.png"",""stims/images/flamingo.png"",""stims/images/narwhal.png""]",alpaca,stims/images/alpaca.png,somewhat unfamiliar,pretest,4,stims/audio/wheres_alpaca.wav,4,stims/images/tapir.png,,,,,,,,,,,,
coact-test-prompt,149,818000,0.0-149.0,,,"[""active"",""passive"",""passive"",""active""]",,,,,,144,,,"[""stims/images/narwhal.png"",""stims/images/dog.png"",""stims/images/bear.png"",""stims/images/tapir.png"",""stims/images/flamingo.png"",""stims/images/manatee.png"",""stims/images/alpaca.png"",""stims/images/koala.png""]",dog,stims/images/dog.png,familiar,pretest,4,,,,,,,,,,,,,,,
coact-test,150,822294,0.0-150.0,,,"[""active"",""passive"",""passive"",""active""]",,,,,,1047487.397,,,"[""stims/images/narwhal.png"",""stims/images/dog.png"",""stims/images/bear.png"",""stims/images/tapir.png"",""stims/images/flamingo.png"",""stims/images/manatee.png"",""stims/images/alpaca.png"",""stims/images/koala.png""]",dog,stims/images/dog.png,familiar,pretest,4,stims/audio/find_dog.wav,1,stims/images/dog.png,,,,,,,,,,,,
coact-test-prompt,151,823057,0.0-151.0,,,"[""active"",""passive"",""passive"",""active""]",,,,,,761,,,"[""stims/images/turtle.png"",""stims/images/wombat.png"",""stims/images/chameleon.png"",""stims/images/lobster.png"",""stims/images/rabbit.png"",""stims/images/armadillo.png"",""stims/images/pangolin.png"",""stims/images/jaguar.png""]",pangolin,stims/images/pangolin.png,unfamiliar,pretest,3,,,,,,,,,,,,,,,
coact-test,152,826838,0.0-152.0,,,"[""active"",""passive"",""passive"",""active""]",,,,,,1052026.339,,,"[""stims/images/turtle.png"",""stims/images/wombat.png"",""stims/images/chameleon.png"",""stims/images/lobster.png"",""stims/images/rabbit.png"",""stims/images/armadillo.png"",""stims/images/pangolin.png"",""stims/images/jaguar.png""]",pangolin,stims/images/pangolin.png,unfamiliar,pretest,3,stims/audio/find_pangolin.wav,6,stims/images/pangolin.png,,,,,,,,,,,,
coact-test-prompt,153,827205,0.0-153.0,,,"[""active"",""passive"",""passive"",""active""]",,,,,,366,,,"[""stims/images/manatee.png"",""stims/images/alpaca.png"",""stims/images/koala.png"",""stims/images/flamingo.png"",""stims/images/bear.png"",""stims/images/tapir.png"",""stims/images/narwhal.png"",""stims/images/dog.png""]",narwhal,stims/images/narwhal.png,unfamiliar,pretest,4,,,,,,,,,,,,,,,
coact-test,154,837061,0.0-154.0,,,"[""active"",""passive"",""passive"",""active""]",,,,,,1062244.192,,,"[""stims/images/manatee.png"",""stims/images/alpaca.png"",""stims/images/koala.png"",""stims/images/flamingo.png"",""stims/images/bear.png"",""stims/images/tapir.png"",""stims/images/narwhal.png"",""stims/images/dog.png""]",narwhal,stims/images/narwhal.png,unfamiliar,pretest,4,stims/audio/wheres_narwhal.wav,0,stims/images/manatee.png,,,,,,,,,,,,
coact-test-prompt,155,837661,0.0-155.0,,,"[""active"",""passive"",""passive"",""active""]",,,,,,599,,,"[""stims/images/pangolin.png"",""stims/images/rabbit.png"",""stims/images/chameleon.png"",""stims/images/armadillo.png"",""stims/images/wombat.png"",""stims/images/turtle.png"",""stims/images/jaguar.png"",""stims/images/lobster.png""]",rabbit,stims/images/rabbit.png,familiar,pretest,3,,,,,,,,,,,,,,,
coact-test,156,841505,0.0-156.0,,,"[""active"",""passive"",""passive"",""active""]",,,,,,1066678.736,,,"[""stims/images/pangolin.png"",""stims/images/rabbit.png"",""stims/images/chameleon.png"",""stims/images/armadillo.png"",""stims/images/wombat.png"",""stims/images/turtle.png"",""stims/images/jaguar.png"",""stims/images/lobster.png""]",rabbit,stims/images/rabbit.png,familiar,pretest,3,stims/audio/find_rabbit.wav,1,stims/images/rabbit.png,,,,,,,,,,,,
coact-test-prompt,157,842705,0.0-157.0,,,"[""active"",""passive"",""passive"",""active""]",,,,,,1199,,,"[""stims/images/alpaca.png"",""stims/images/tapir.png"",""stims/images/koala.png"",""stims/images/narwhal.png"",""stims/images/manatee.png"",""stims/images/flamingo.png"",""stims/images/dog.png"",""stims/images/bear.png""]",manatee,stims/images/manatee.png,somewhat unfamiliar,pretest,4,,,,,,,,,,,,,,,
coact-test,158,858240,0.0-158.0,,,"[""active"",""passive"",""passive"",""active""]",,,,,,1083409.688,,,"[""stims/images/alpaca.png"",""stims/images/tapir.png"",""stims/images/koala.png"",""stims/images/narwhal.png"",""stims/images/manatee.png"",""stims/images/flamingo.png"",""stims/images/dog.png"",""stims/images/bear.png""]",manatee,stims/images/manatee.png,somewhat unfamiliar,pretest,4,stims/audio/find_manatee.wav,3,stims/images/narwhal.png,,,,,,,,,,,,
html-button-response,159,883549,0.0-159.0,,,"[""active"",""passive"",""passive"",""active""]",,,,,,25309,,0,,,,,,,,,,,,,,,,,,,,,
coact-grid,160,891381,0.0-160.0,,,"[""active"",""passive"",""passive"",""active""]",,,,,,6524,,,"[""stims/images/chameleon.png"",""stims/images/armadillo.png"",""stims/images/lobster.png"",""stims/images/jaguar.png"",""stims/images/rabbit.png"",""stims/images/wombat.png"",""stims/images/turtle.png"",""stims/images/pangolin.png""]",,,,,3,,,,"[1,6]","[""stims/images/armadillo.png"",""stims/images/turtle.png""]","[""armadillo"",""turtle""]","[""stims/audio/its_armadillo.wav"",""stims/audio/its_turtle.wav""]",right,"[""stims/images/turtle.png"",""stims/images/armadillo.png""]","[""stims/audio/its_turtle.wav"",""stims/audio/its_armadillo.wav""]","[""turtle"",""armadillo""]",0,,,
coact-grid-choice,161,896049,0.0-161.0,,,"[""active"",""passive"",""passive"",""active""]",,,,,,4667,,,"[""stims/images/chameleon.png"",""stims/images/armadillo.png"",""stims/images/lobster.png"",""stims/images/jaguar.png"",""stims/images/rabbit.png"",""stims/images/wombat.png"",""stims/images/turtle.png"",""stims/images/pangolin.png""]",,,,,3,,,stims/images/turtle.png,,,,,right,"[""stims/images/turtle.png"",""stims/images/armadillo.png""]","[""stims/audio/its_turtle.wav"",""stims/audio/its_armadillo.wav""]","[""turtle"",""armadillo""]",0,1,stims/audio/its_armadillo.wav,"[""stims/images/armadillo.png"",""stims/images/turtle.png""]"
coact-grid-choice-audio,162,899057,0.0-162.0,,,"[""active"",""passive"",""passive"",""active""]",,,,,,3000,,,,,,,,3,,,stims/images/turtle.png,,,,,right,,,,0,,stims/audio/its_armadillo.wav,
coact-grid,163,903054,0.0-163.0,,,"[""active"",""passive"",""passive"",""active""]",,,,,,2689,,,"[""stims/images/pangolin.png"",""stims/images/turtle.png"",""stims/images/jaguar.png"",""stims/images/wombat.png"",""stims/images/chameleon.png"",""stims/images/rabbit.png"",""stims/images/lobster.png"",""stims/images/armadillo.png""]",,,,,3,,,,"[0,2]","[""stims/images/pangolin.png"",""stims/images/jaguar.png""]","[""pangolin"",""jaguar""]","[""stims/audio/its_pangolin.wav"",""stims/audio/its_jaguar.wav""]",left,"[""stims/images/pangolin.png"",""stims/images/jaguar.png""]","[""stims/audio/its_pangolin.wav"",""stims/audio/its_jaguar.wav""]","[""pangolin"",""jaguar""]",1,,,
coact-grid-choice,164,906089,0.0-164.0,,,"[""active"",""passive"",""passive"",""active""]",,,,,,3034,,,"[""stims/images/pangolin.png"",""stims/images/turtle.png"",""stims/images/jaguar.png"",""stims/images/wombat.png"",""stims/images/chameleon.png"",""stims/images/rabbit.png"",""stims/images/lobster.png"",""stims/images/armadillo.png""]",,,,,3,,,stims/images/jaguar.png,,,,,left,"[""stims/images/pangolin.png"",""stims/images/jaguar.png""]","[""stims/audio/its_pangolin.wav"",""stims/audio/its_jaguar.wav""]","[""pangolin"",""jaguar""]",1,1,stims/audio/its_jaguar.wav,"[""stims/images/pangolin.png"",""stims/images/jaguar.png""]"
coact-grid-choice-audio,165,909102,0.0-165.0,,,"[""active"",""passive"",""passive"",""active""]",,,,,,3000,,,,,,,,3,,,stims/images/jaguar.png,,,,,left,,,,1,,stims/audio/its_jaguar.wav,
coact-grid,166,912693,0.0-166.0,,,"[""active"",""passive"",""passive"",""active""]",,,,,,2286,,,"[""stims/images/jaguar.png"",""stims/images/chameleon.png"",""stims/images/armadillo.png"",""stims/images/wombat.png"",""stims/images/rabbit.png"",""stims/images/pangolin.png"",""stims/images/turtle.png"",""stims/images/lobster.png""]",,,,,3,,,,"[7,0]","[""stims/images/lobster.png"",""stims/images/jaguar.png""]","[""lobster"",""jaguar""]","[""stims/audio/thats_lobster.wav"",""stims/audio/thats_jaguar.wav""]",left,"[""stims/images/lobster.png"",""stims/images/jaguar.png""]","[""stims/audio/thats_lobster.wav"",""stims/audio/thats_jaguar.wav""]","[""lobster"",""jaguar""]",2,,,
coact-grid-choice,167,916077,0.0-167.0,,,"[""active"",""passive"",""passive"",""active""]",,,,,,3383,,,"[""stims/images/jaguar.png"",""stims/images/chameleon.png"",""stims/images/armadillo.png"",""stims/images/wombat.png"",""stims/images/rabbit.png"",""stims/images/pangolin.png"",""stims/images/turtle.png"",""stims/images/lobster.png""]",,,,,3,,,stims/images/lobster.png,,,,,left,"[""stims/images/lobster.png"",""stims/images/jaguar.png""]","[""stims/audio/thats_lobster.wav"",""stims/audio/thats_jaguar.wav""]","[""lobster"",""jaguar""]",2,0,stims/audio/thats_lobster.wav,"[""stims/images/lobster.png"",""stims/images/jaguar.png""]"
coact-grid-choice-audio,168,919086,0.0-168.0,,,"[""active"",""passive"",""passive"",""active""]",,,,,,3003,,,,,,,,3,,,stims/images/lobster.png,,,,,left,,,,2,,stims/audio/thats_lobster.wav,
coact-grid,169,922587,0.0-169.0,,,"[""active"",""passive"",""passive"",""active""]",,,,,,2196,,,"[""stims/images/lobster.png"",""stims/images/turtle.png"",""stims/images/rabbit.png"",""stims/images/chameleon.png"",""stims/images/pangolin.png"",""stims/images/jaguar.png"",""stims/images/wombat.png"",""stims/images/armadillo.png""]",,,,,3,,,,"[1,3]","[""stims/images/turtle.png"",""stims/images/chameleon.png""]","[""turtle"",""chameleon""]","[""stims/audio/its_turtle.wav"",""stims/audio/its_chameleon.wav""]",left,"[""stims/images/turtle.png"",""stims/images/chameleon.png""]","[""stims/audio/its_turtle.wav"",""stims/audio/its_chameleon.wav""]","[""turtle"",""chameleon""]",3,,,
coact-grid-choice,170,926634,0.0-170.0,,,"[""active"",""passive"",""passive"",""active""]",,,,,,4045,,,"[""stims/images/lobster.png"",""stims/images/turtle.png"",""stims/images/rabbit.png"",""stims/images/chameleon.png"",""stims/images/pangolin.png"",""stims/images/jaguar.png"",""stims/images/wombat.png"",""stims/images/armadillo.png""]",,,,,3,,,stims/images/chameleon.png,,,,,left,"[""stims/images/turtle.png"",""stims/images/chameleon.png""]","[""stims/audio/its_turtle.wav"",""stims/audio/its_chameleon.wav""]","[""turtle"",""chameleon""]",3,1,stims/audio/its_chameleon.wav,"[""stims/images/turtle.png"",""stims/images/chameleon.png""]"
coact-grid-choice-audio,171,929641,0.0-171.0,,,"[""active"",""passive"",""passive"",""active""]",,,,,,3000,,,,,,,,3,,,stims/images/chameleon.png,,,,,left,,,,3,,stims/audio/its_chameleon.wav,
coact-grid,172,933078,0.0-172.0,,,"[""active"",""passive"",""passive"",""active""]",,,,,,2130,,,"[""stims/images/lobster.png"",""stims/images/jaguar.png"",""stims/images/armadillo.png"",""stims/images/pangolin.png"",""stims/images/wombat.png"",""stims/images/chameleon.png"",""stims/images/turtle.png"",""stims/images/rabbit.png""]",,,,,3,,,,"[5,7]","[""stims/images/chameleon.png"",""stims/images/rabbit.png""]","[""chameleon"",""rabbit""]","[""stims/audio/thats_chameleon.wav"",""stims/audio/thats_rabbit.wav""]",right,"[""stims/images/rabbit.png"",""stims/images/chameleon.png""]","[""stims/audio/thats_rabbit.wav"",""stims/audio/thats_chameleon.wav""]","[""rabbit"",""chameleon""]",4,,,
coact-grid-choice,173,935689,0.0-173.0,,,"[""active"",""passive"",""passive"",""active""]",,,,,,2609,,,"[""stims/images/lobster.png"",""stims/images/jaguar.png"",""stims/images/armadillo.png"",""stims/images/pangolin.png"",""stims/images/wombat.png"",""stims/images/chameleon.png"",""stims/images/turtle.png"",""stims/images/rabbit.png""]",,,,,3,,,stims/images/chameleon.png,,,,,right,"[""stims/images/rabbit.png"",""stims/images/chameleon.png""]","[""stims/audio/thats_rabbit.wav"",""stims/audio/thats_chameleon.wav""]","[""rabbit"",""chameleon""]",4,0,stims/audio/thats_rabbit.wav,"[""stims/images/chameleon.png"",""stims/images/rabbit.png""]"
coact-grid-choice-audio,174,938697,0.0-174.0,,,"[""active"",""passive"",""passive"",""active""]",,,,,,3000,,,,,,,,3,,,stims/images/chameleon.png,,,,,right,,,,4,,stims/audio/thats_rabbit.wav,
coact-grid,175,942357,0.0-175.0,,,"[""active"",""passive"",""passive"",""active""]",,,,,,2354,,,"[""stims/images/wombat.png"",""stims/images/pangolin.png"",""stims/images/chameleon.png"",""stims/images/turtle.png"",""stims/images/rabbit.png"",""stims/images/jaguar.png"",""stims/images/armadillo.png"",""stims/images/lobster.png""]",,,,,3,,,,"[0,6]","[""stims/images/wombat.png"",""stims/images/armadillo.png""]","[""wombat"",""armadillo""]","[""stims/audio/thats_wombat.wav"",""stims/audio/thats_armadillo.wav""]",right,"[""stims/images/armadillo.png"",""stims/images/wombat.png""]","[""stims/audio/thats_armadillo.wav"",""stims/audio/thats_wombat.wav""]","[""armadillo"",""wombat""]",5,,,
coact-grid-choice,176,946612,0.0-176.0,,,"[""active"",""passive"",""passive"",""active""]",,,,,,4253,,,"[""stims/images/wombat.png"",""stims/images/pangolin.png"",""stims/images/chameleon.png"",""stims/images/turtle.png"",""stims/images/rabbit.png"",""stims/images/jaguar.png"",""stims/images/armadillo.png"",""stims/images/lobster.png""]",,,,,3,,,stims/images/armadillo.png,,,,,right,"[""stims/images/armadillo.png"",""stims/images/wombat.png""]","[""stims/audio/thats_armadillo.wav"",""stims/audio/thats_wombat.wav""]","[""armadillo"",""wombat""]",5,1,stims/audio/thats_wombat.wav,"[""stims/images/wombat.png"",""stims/images/armadillo.png""]"
coact-grid-choice-audio,177,949620,0.0-177.0,,,"[""active"",""passive"",""passive"",""active""]",,,,,,3000,,,,,,,,3,,,stims/images/armadillo.png,,,,,right,,,,5,,stims/audio/thats_wombat.wav,
html-button-response,178,959739,0.0-178.0,,,"[""active"",""passive"",""passive"",""active""]",,,,,,10118,,0,,,,,,,,,,,,,,,,,,,,,
coact-grid,179,968812,0.0-179.0,,,"[""active"",""passive"",""passive"",""active""]",,,,,,7768,,,"[""stims/images/flamingo.png"",""stims/images/koala.png"",""stims/images/dog.png"",""stims/images/manatee.png"",""stims/images/alpaca.png"",""stims/images/bear.png"",""stims/images/narwhal.png"",""stims/images/tapir.png""]",,,,,4,,,,"[4,7]","[""stims/images/alpaca.png"",""stims/images/tapir.png""]","[""alpaca"",""tapir""]","[""stims/audio/its_alpaca.wav"",""stims/audio/its_tapir.wav""]",right,"[""stims/images/tapir.png"",""stims/images/alpaca.png""]","[""stims/audio/its_tapir.wav"",""stims/audio/its_alpaca.wav""]","[""tapir"",""alpaca""]",0,,,
coact-grid-choice,180,971409,0.0-180.0,,,"[""active"",""passive"",""passive"",""active""]",,,,,,2596,,,"[""stims/images/flamingo.png"",""stims/images/koala.png"",""stims/images/dog.png"",""stims/images/manatee.png"",""stims/images/alpaca.png"",""stims/images/bear.png"",""stims/images/narwhal.png"",""stims/images/tapir.png""]",,,,,4,,,stims/images/tapir.png,,,,,right,"[""stims/images/tapir.png"",""stims/images/alpaca.png""]","[""stims/audio/its_tapir.wav"",""stims/audio/its_alpaca.wav""]","[""tapir"",""alpaca""]",0,1,stims/audio/its_alpaca.wav,"[""stims/images/alpaca.png"",""stims/images/tapir.png""]"
coact-grid-choice-audio,181,974417,0.0-181.0,,,"[""active"",""passive"",""passive"",""active""]",,,,,,3000,,,,,,,,4,,,stims/images/tapir.png,,,,,right,,,,0,,stims/audio/its_alpaca.wav,
coact-grid,182,980229,0.0-182.0,,,"[""active"",""passive"",""passive"",""active""]",,,,,,4507,,,"[""stims/images/tapir.png"",""stims/images/bear.png"",""stims/images/dog.png"",""stims/images/koala.png"",""stims/images/narwhal.png"",""stims/images/alpaca.png"",""stims/images/flamingo.png"",""stims/images/manatee.png""]",,,,,4,,,,"[7,5]","[""stims/images/manatee.png"",""stims/images/alpaca.png""]","[""manatee"",""alpaca""]","[""stims/audio/thats_manatee.wav"",""stims/audio/thats_alpaca.wav""]",right,"[""stims/images/alpaca.png"",""stims/images/manatee.png""]","[""stims/audio/thats_alpaca.wav"",""stims/audio/thats_manatee.wav""]","[""alpaca"",""manatee""]",1,,,
coact-grid-choice,183,984734,0.0-183.0,,,"[""active"",""passive"",""passive"",""active""]",,,,,,4504,,,"[""stims/images/tapir.png"",""stims/images/bear.png"",""stims/images/dog.png"",""stims/images/koala.png"",""stims/images/narwhal.png"",""stims/images/alpaca.png"",""stims/images/flamingo.png"",""stims/images/manatee.png""]",,,,,4,,,stims/images/alpaca.png,,,,,right,"[""stims/images/alpaca.png"",""stims/images/manatee.png""]","[""stims/audio/thats_alpaca.wav"",""stims/audio/thats_manatee.wav""]","[""alpaca"",""manatee""]",1,1,stims/audio/thats_manatee.wav,"[""stims/images/manatee.png"",""stims/images/alpaca.png""]"
coact-grid-choice-audio,184,987743,0.0-184.0,,,"[""active"",""passive"",""passive"",""active""]",,,,,,3000,,,,,,,,4,,,stims/images/alpaca.png,,,,,right,,,,1,,stims/audio/thats_manatee.wav,
coact-grid,185,994778,0.0-185.0,,,"[""active"",""passive"",""passive"",""active""]",,,,,,5726,,,"[""stims/images/narwhal.png"",""stims/images/bear.png"",""stims/images/tapir.png"",""stims/images/dog.png"",""stims/images/flamingo.png"",""stims/images/alpaca.png"",""stims/images/manatee.png"",""stims/images/koala.png""]",,,,,4,,,,"[0,6]","[""stims/images/narwhal.png"",""stims/images/manatee.png""]","[""narwhal"",""manatee""]","[""stims/audio/thats_narwhal.wav"",""stims/audio/thats_manatee.wav""]",left,"[""stims/images/narwhal.png"",""stims/images/manatee.png""]","[""stims/audio/thats_narwhal.wav"",""stims/audio/thats_manatee.wav""]","[""narwhal"",""manatee""]",2,,,
coact-grid-choice,186,997491,0.0-186.0,,,"[""active"",""passive"",""passive"",""active""]",,,,,,2711,,,"[""stims/images/narwhal.png"",""stims/images/bear.png"",""stims/images/tapir.png"",""stims/images/dog.png"",""stims/images/flamingo.png"",""stims/images/alpaca.png"",""stims/images/manatee.png"",""stims/images/koala.png""]",,,,,4,,,stims/images/narwhal.png,,,,,left,"[""stims/images/narwhal.png"",""stims/images/manatee.png""]","[""stims/audio/thats_narwhal.wav"",""stims/audio/thats_manatee.wav""]","[""narwhal"",""manatee""]",2,0,stims/audio/thats_narwhal.wav,"[""stims/images/narwhal.png"",""stims/images/manatee.png""]"
coact-grid-choice-audio,187,1000498,0.0-187.0,,,"[""active"",""passive"",""passive"",""active""]",,,,,,3003,,,,,,,,4,,,stims/images/narwhal.png,,,,,left,,,,2,,stims/audio/thats_narwhal.wav,
coact-grid,188,1010842,0.0-188.0,,,"[""active"",""passive"",""passive"",""active""]",,,,,,9038,,,"[""stims/images/narwhal.png"",""stims/images/flamingo.png"",""stims/images/manatee.png"",""stims/images/dog.png"",""stims/images/tapir.png"",""stims/images/koala.png"",""stims/images/alpaca.png"",""stims/images/bear.png""]",,,,,4,,,,"[4,0]","[""stims/images/tapir.png"",""stims/images/narwhal.png""]","[""tapir"",""narwhal""]","[""stims/audio/thats_tapir.wav"",""stims/audio/thats_narwhal.wav""]",right,"[""stims/images/narwhal.png"",""stims/images/tapir.png""]","[""stims/audio/thats_narwhal.wav"",""stims/audio/thats_tapir.wav""]","[""narwhal"",""tapir""]",3,,,
coact-grid-choice,189,1012983,0.0-189.0,,,"[""active"",""passive"",""passive"",""active""]",,,,,,2140,,,"[""stims/images/narwhal.png"",""stims/images/flamingo.png"",""stims/images/manatee.png"",""stims/images/dog.png"",""stims/images/tapir.png"",""stims/images/koala.png"",""stims/images/alpaca.png"",""stims/images/bear.png""]",,,,,4,,,stims/images/narwhal.png,,,,,right,"[""stims/images/narwhal.png"",""stims/images/tapir.png""]","[""stims/audio/thats_narwhal.wav"",""stims/audio/thats_tapir.wav""]","[""narwhal"",""tapir""]",3,1,stims/audio/thats_tapir.wav,"[""stims/images/tapir.png"",""stims/images/narwhal.png""]"
coact-grid-choice-audio,190,1015991,0.0-190.0,,,"[""active"",""passive"",""passive"",""active""]",,,,,,3000,,,,,,,,4,,,stims/images/narwhal.png,,,,,right,,,,3,,stims/audio/thats_tapir.wav,
coact-grid,191,1031390,0.0-191.0,,,"[""active"",""passive"",""passive"",""active""]",,,,,,14093,,,"[""stims/images/manatee.png"",""stims/images/narwhal.png"",""stims/images/tapir.png"",""stims/images/dog.png"",""stims/images/alpaca.png"",""stims/images/koala.png"",""stims/images/bear.png"",""stims/images/flamingo.png""]",,,,,4,,,,"[2,0]","[""stims/images/tapir.png"",""stims/images/manatee.png""]","[""tapir"",""manatee""]","[""stims/audio/its_tapir.wav"",""stims/audio/its_manatee.wav""]",left,"[""stims/images/tapir.png"",""stims/images/manatee.png""]","[""stims/audio/its_tapir.wav"",""stims/audio/its_manatee.wav""]","[""tapir"",""manatee""]",4,,,
coact-grid-choice,192,1035996,0.0-192.0,,,"[""active"",""passive"",""passive"",""active""]",,,,,,4605,,,"[""stims/images/manatee.png"",""stims/images/narwhal.png"",""stims/images/tapir.png"",""stims/images/dog.png"",""stims/images/alpaca.png"",""stims/images/koala.png"",""stims/images/bear.png"",""stims/images/flamingo.png""]",,,,,4,,,stims/images/manatee.png,,,,,left,"[""stims/images/tapir.png"",""stims/images/manatee.png""]","[""stims/audio/its_tapir.wav"",""stims/audio/its_manatee.wav""]","[""tapir"",""manatee""]",4,1,stims/audio/its_manatee.wav,"[""stims/images/tapir.png"",""stims/images/manatee.png""]"
coact-grid-choice-audio,193,1039006,0.0-193.0,,,"[""active"",""passive"",""passive"",""active""]",,,,,,3000,,,,,,,,4,,,stims/images/manatee.png,,,,,left,,,,4,,stims/audio/its_manatee.wav,
coact-grid,194,1046025,0.0-194.0,,,"[""active"",""passive"",""passive"",""active""]",,,,,,5714,,,"[""stims/images/alpaca.png"",""stims/images/koala.png"",""stims/images/narwhal.png"",""stims/images/tapir.png"",""stims/images/flamingo.png"",""stims/images/bear.png"",""stims/images/manatee.png"",""stims/images/dog.png""]",,,,,4,,,,"[4,0]","[""stims/images/flamingo.png"",""stims/images/alpaca.png""]","[""flamingo"",""alpaca""]","[""stims/audio/its_flamingo.wav"",""stims/audio/its_alpaca.wav""]",left,"[""stims/images/flamingo.png"",""stims/images/alpaca.png""]","[""stims/audio/its_flamingo.wav"",""stims/audio/its_alpaca.wav""]","[""flamingo"",""alpaca""]",5,,,
coact-grid-choice,195,1047603,0.0-195.0,,,"[""active"",""passive"",""passive"",""active""]",,,,,,1577,,,"[""stims/images/alpaca.png"",""stims/images/koala.png"",""stims/images/narwhal.png"",""stims/images/tapir.png"",""stims/images/flamingo.png"",""stims/images/bear.png"",""stims/images/manatee.png"",""stims/images/dog.png""]",,,,,4,,,stims/images/flamingo.png,,,,,left,"[""stims/images/flamingo.png"",""stims/images/alpaca.png""]","[""stims/audio/its_flamingo.wav"",""stims/audio/its_alpaca.wav""]","[""flamingo"",""alpaca""]",5,0,stims/audio/its_flamingo.wav,"[""stims/images/flamingo.png"",""stims/images/alpaca.png""]"
coact-grid-choice-audio,196,1050611,0.0-196.0,,,"[""active"",""passive"",""passive"",""active""]",,,,,,3000,,,,,,,,4,,,stims/images/flamingo.png,,,,,left,,,,5,,stims/audio/its_flamingo.wav,
html-button-response,197,1115503,0.0-197.0,,,"[""active"",""passive"",""passive"",""active""]",,,,,,64893,,0,,,,,,,,,,,,,,,,,,,,,
coact-test-prompt,198,1149056,0.0-198.0,,,"[""active"",""passive"",""passive"",""active""]",,,,,,33553,,,"[""stims/images/duck.png"",""stims/images/cow.png"",""stims/images/wolf.png"",""stims/images/frog.png"",""stims/images/squirrel.png"",""stims/images/horse.png"",""stims/images/cat.png"",""stims/images/butterfly.png""]",wolf,stims/images/wolf.png,familiar,practice_posttest,familiar,,,,,,,,,,,,,,,
coact-test,199,1433460,0.0-199.0,,,"[""active"",""passive"",""passive"",""active""]",,,,,,1658351.336,,,"[""stims/images/duck.png"",""stims/images/cow.png"",""stims/images/wolf.png"",""stims/images/frog.png"",""stims/images/squirrel.png"",""stims/images/horse.png"",""stims/images/cat.png"",""stims/images/butterfly.png""]",wolf,stims/images/wolf.png,familiar,practice_posttest,familiar,stims/audio/wheres_wolf.wav,2,stims/images/wolf.png,,,,,,,,,,,,
coact-test-prompt,200,1434569,0.0-200.0,,,"[""active"",""passive"",""passive"",""active""]",,,,,,1107,,,"[""stims/images/tapir.png"",""stims/images/manatee.png"",""stims/images/bear.png"",""stims/images/alpaca.png"",""stims/images/dog.png"",""stims/images/narwhal.png"",""stims/images/koala.png"",""stims/images/flamingo.png""]",flamingo,stims/images/flamingo.png,somewhat familiar,posttest,4,,,,,,,,,,,,,,,
coact-test,201,1436103,0.0-201.0,,,"[""active"",""passive"",""passive"",""active""]",,,,,,1660709.821,,,"[""stims/images/tapir.png"",""stims/images/manatee.png"",""stims/images/bear.png"",""stims/images/alpaca.png"",""stims/images/dog.png"",""stims/images/narwhal.png"",""stims/images/koala.png"",""stims/images/flamingo.png""]",flamingo,stims/images/flamingo.png,somewhat familiar,posttest,4,stims/audio/wheres_flamingo.wav,2,stims/images/bear.png,,,,,,,,,,,,
coact-test-prompt,202,1436916,0.0-202.0,,,"[""active"",""passive"",""passive"",""active""]",,,,,,811,,,"[""stims/images/rabbit.png"",""stims/images/lobster.png"",""stims/images/armadillo.png"",""stims/images/chameleon.png"",""stims/images/jaguar.png"",""stims/images/wombat.png"",""stims/images/turtle.png"",""stims/images/pangolin.png""]",armadillo,stims/images/armadillo.png,somewhat unfamiliar,posttest,3,,,,,,,,,,,,,,,
coact-test,203,1438355,0.0-203.0,,,"[""active"",""passive"",""passive"",""active""]",,,,,,1662959.472,,,"[""stims/images/rabbit.png"",""stims/images/lobster.png"",""stims/images/armadillo.png"",""stims/images/chameleon.png"",""stims/images/jaguar.png"",""stims/images/wombat.png"",""stims/images/turtle.png"",""stims/images/pangolin.png""]",armadillo,stims/images/armadillo.png,somewhat unfamiliar,posttest,3,stims/audio/wheres_armadillo.wav,2,stims/images/armadillo.png,,,,,,,,,,,,
coact-test-prompt,204,1439197,0.0-204.0,,,"[""active"",""passive"",""passive"",""active""]",,,,,,840,,,"[""stims/images/bear.png"",""stims/images/dog.png"",""stims/images/flamingo.png"",""stims/images/koala.png"",""stims/images/tapir.png"",""stims/images/narwhal.png"",""stims/images/manatee.png"",""stims/images/alpaca.png""]",alpaca,stims/images/alpaca.png,somewhat unfamiliar,posttest,4,,,,,,,,,,,,,,,
coact-test,205,1440539,0.0-205.0,,,"[""active"",""passive"",""passive"",""active""]",,,,,,1665141.192,,,"[""stims/images/bear.png"",""stims/images/dog.png"",""stims/images/flamingo.png"",""stims/images/koala.png"",""stims/images/tapir.png"",""stims/images/narwhal.png"",""stims/images/manatee.png"",""stims/images/alpaca.png""]",alpaca,stims/images/alpaca.png,somewhat unfamiliar,posttest,4,stims/audio/find_alpaca.wav,2,stims/images/flamingo.png,,,,,,,,,,,,
coact-test-prompt,206,1441440,0.0-206.0,,,"[""active"",""passive"",""passive"",""active""]",,,,,,899,,,"[""stims/images/wombat.png"",""stims/images/chameleon.png"",""stims/images/lobster.png"",""stims/images/jaguar.png"",""stims/images/rabbit.png"",""stims/images/pangolin.png"",""stims/images/armadillo.png"",""stims/images/turtle.png""]",rabbit,stims/images/rabbit.png,familiar,posttest,3,,,,,,,,,,,,,,,
coact-test,207,1442907,0.0-207.0,,,"[""active"",""passive"",""passive"",""active""]",,,,,,1667506.949,,,"[""stims/images/wombat.png"",""stims/images/chameleon.png"",""stims/images/lobster.png"",""stims/images/jaguar.png"",""stims/images/rabbit.png"",""stims/images/pangolin.png"",""stims/images/armadillo.png"",""stims/images/turtle.png""]",rabbit,stims/images/rabbit.png,familiar,posttest,3,stims/audio/wheres_rabbit.wav,2,stims/images/lobster.png,,,,,,,,,,,,
coact-test-prompt,208,1453780,0.0-208.0,,,"[""active"",""passive"",""passive"",""active""]",,,,,,10872,,,"[""stims/images/turtle.png"",""stims/images/armadillo.png"",""stims/images/pangolin.png"",""stims/images/jaguar.png"",""stims/images/lobster.png"",""stims/images/wombat.png"",""stims/images/rabbit.png"",""stims/images/chameleon.png""]",wombat,stims/images/wombat.png,unfamiliar,posttest,3,,,,,,,,,,,,,,,
coact-test,209,1455021,0.0-209.0,,,"[""active"",""passive"",""passive"",""active""]",,,,,,1679609.611,,,"[""stims/images/turtle.png"",""stims/images/armadillo.png"",""stims/images/pangolin.png"",""stims/images/jaguar.png"",""stims/images/lobster.png"",""stims/images/wombat.png"",""stims/images/rabbit.png"",""stims/images/chameleon.png""]",wombat,stims/images/wombat.png,unfamiliar,posttest,3,stims/audio/wheres_wombat.wav,2,stims/images/pangolin.png,,,,,,,,,,,,
coact-test-prompt,210,1456273,0.0-210.0,,,"[""active"",""passive"",""passive"",""active""]",,,,,,1251,,,"[""stims/images/dog.png"",""stims/images/narwhal.png"",""stims/images/koala.png"",""stims/images/flamingo.png"",""stims/images/bear.png"",""stims/images/manatee.png"",""stims/images/alpaca.png"",""stims/images/tapir.png""]",narwhal,stims/images/narwhal.png,unfamiliar,posttest,4,,,,,,,,,,,,,,,
coact-test,211,1457657,0.0-211.0,,,"[""active"",""passive"",""passive"",""active""]",,,,,,1682242.115,,,"[""stims/images/dog.png"",""stims/images/narwhal.png"",""stims/images/koala.png"",""stims/images/flamingo.png"",""stims/images/bear.png"",""stims/images/manatee.png"",""stims/images/alpaca.png"",""stims/images/tapir.png""]",narwhal,stims/images/narwhal.png,unfamiliar,posttest,4,stims/audio/find_narwhal.wav,2,stims/images/koala.png,,,,,,,,,,,,
coact-test-prompt,212,1458666,0.0-212.0,,,"[""active"",""passive"",""passive"",""active""]",,,,,,1009,,,"[""stims/images/chameleon.png"",""stims/images/lobster.png"",""stims/images/jaguar.png"",""stims/images/rabbit.png"",""stims/images/wombat.png"",""stims/images/turtle.png"",""stims/images/armadillo.png"",""stims/images/pangolin.png""]",pangolin,stims/images/pangolin.png,unfamiliar,posttest,3,,,,,,,,,,,,,,,
coact-test,213,1459916,0.0-213.0,,,"[""active"",""passive"",""passive"",""active""]",,,,,,1684499.723,,,"[""stims/images/chameleon.png"",""stims/images/lobster.png"",""stims/images/jaguar.png"",""stims/images/rabbit.png"",""stims/images/wombat.png"",""stims/images/turtle.png"",""stims/images/armadillo.png"",""stims/images/pangolin.png""]",pangolin,stims/images/pangolin.png,unfamiliar,posttest,3,stims/audio/find_pangolin.wav,2,stims/images/jaguar.png,,,,,,,,,,,,
coact-test-prompt,214,1460767,0.0-214.0,,,"[""active"",""passive"",""passive"",""active""]",,,,,,851,,,"[""stims/images/bear.png"",""stims/images/koala.png"",""stims/images/manatee.png"",""stims/images/narwhal.png"",""stims/images/alpaca.png"",""stims/images/dog.png"",""stims/images/flamingo.png"",""stims/images/tapir.png""]",bear,stims/images/bear.png,familiar,posttest,4,,,,,,,,,,,,,,,
coact-test,215,1462034,0.0-215.0,,,"[""active"",""passive"",""passive"",""active""]",,,,,,1686615.621,,,"[""stims/images/bear.png"",""stims/images/koala.png"",""stims/images/manatee.png"",""stims/images/narwhal.png"",""stims/images/alpaca.png"",""stims/images/dog.png"",""stims/images/flamingo.png"",""stims/images/tapir.png""]",bear,stims/images/bear.png,familiar,posttest,4,stims/audio/wheres_bear.wav,2,stims/images/manatee.png,,,,,,,,,,,,
coact-test-prompt,216,1462935,0.0-216.0,,,"[""active"",""passive"",""passive"",""active""]",,,,,,900,,,"[""stims/images/rabbit.png"",""stims/images/pangolin.png"",""stims/images/jaguar.png"",""stims/images/wombat.png"",""stims/images/armadillo.png"",""stims/images/chameleon.png"",""stims/images/lobster.png"",""stims/images/turtle.png""]",lobster,stims/images/lobster.png,somewhat familiar,posttest,3,,,,,,,,,,,,,,,
coact-test,217,1464169,0.0-217.0,,,"[""active"",""passive"",""passive"",""active""]",,,,,,1688747.453,,,"[""stims/images/rabbit.png"",""stims/images/pangolin.png"",""stims/images/jaguar.png"",""stims/images/wombat.png"",""stims/images/armadillo.png"",""stims/images/chameleon.png"",""stims/images/lobster.png"",""stims/images/turtle.png""]",lobster,stims/images/lobster.png,somewhat familiar,posttest,3,stims/audio/find_lobster.wav,2,stims/images/jaguar.png,,,,,,,,,,,,
coact-test-prompt,218,1464928,0.0-218.0,,,"[""active"",""passive"",""passive"",""active""]",,,,,,759,,,"[""stims/images/flamingo.png"",""stims/images/tapir.png"",""stims/images/koala.png"",""stims/images/bear.png"",""stims/images/alpaca.png"",""stims/images/narwhal.png"",""stims/images/manatee.png"",""stims/images/dog.png""]",dog,stims/images/dog.png,familiar,posttest,4,,,,,,,,,,,,,,,
coact-test,219,1466211,0.0-219.0,,,"[""active"",""passive"",""passive"",""active""]",,,,,,1690788.459,,,"[""stims/images/flamingo.png"",""stims/images/tapir.png"",""stims/images/koala.png"",""stims/images/bear.png"",""stims/images/alpaca.png"",""stims/images/narwhal.png"",""stims/images/manatee.png"",""stims/images/dog.png""]",dog,stims/images/dog.png,familiar,posttest,4,stims/audio/wheres_dog.wav,2,stims/images/koala.png,,,,,,,,,,,,
coact-test-prompt,220,1467088,0.0-220.0,,,"[""active"",""passive"",""passive"",""active""]",,,,,,875,,,"[""stims/images/lobster.png"",""stims/images/armadillo.png"",""stims/images/chameleon.png"",""stims/images/rabbit.png"",""stims/images/jaguar.png"",""stims/images/wombat.png"",""stims/images/pangolin.png"",""stims/images/turtle.png""]",jaguar,stims/images/jaguar.png,somewhat familiar,posttest,3,,,,,,,,,,,,,,,
coact-test,221,1468354,0.0-221.0,,,"[""active"",""passive"",""passive"",""active""]",,,,,,1692929.301,,,"[""stims/images/lobster.png"",""stims/images/armadillo.png"",""stims/images/chameleon.png"",""stims/images/rabbit.png"",""stims/images/jaguar.png"",""stims/images/wombat.png"",""stims/images/pangolin.png"",""stims/images/turtle.png""]",jaguar,stims/images/jaguar.png,somewhat familiar,posttest,3,stims/audio/find_jaguar.wav,2,stims/images/chameleon.png,,,,,,,,,,,,
coact-test-prompt,222,1469147,0.0-222.0,,,"[""active"",""passive"",""passive"",""active""]",,,,,,792,,,"[""stims/images/alpaca.png"",""stims/images/dog.png"",""stims/images/flamingo.png"",""stims/images/bear.png"",""stims/images/tapir.png"",""stims/images/narwhal.png"",""stims/images/manatee.png"",""stims/images/koala.png""]",manatee,stims/images/manatee.png,somewhat unfamiliar,posttest,4,,,,,,,,,,,,,,,
coact-test,223,1470423,0.0-223.0,,,"[""active"",""passive"",""passive"",""active""]",,,,,,1694996.243,,,"[""stims/images/alpaca.png"",""stims/images/dog.png"",""stims/images/flamingo.png"",""stims/images/bear.png"",""stims/images/tapir.png"",""stims/images/narwhal.png"",""stims/images/manatee.png"",""stims/images/koala.png""]",manatee,stims/images/manatee.png,somewhat unfamiliar,posttest,4,stims/audio/find_manatee.wav,2,stims/images/flamingo.png,,,,,,,,,,,,
