"trial_type","trial_index","time_elapsed","internal_node_id","subject_id","round_name","round_index","success","timeout","failed_images","failed_audio","failed_video","rt","stimulus","response","images","target","target_image","target_type","round_type","set","test_audio","choice","chosen_image","correct","choices","chosen_images","chosen_items","chosen_audio_items","first_choice_location","chosen_images_in_order","chosen_audio_in_order","chosen_items_in_order","condition","sample_num","chosen_index","chosen_audio","central_images"
"pavlovia","0","3","0.0-0.0","p034","3","2","","","","","","","","","","","","","","","","","","","","","","","","","","","","","","",""
"preload","1","142","0.0-1.0","p034","3","2","true","false","[]","[]","[]","","","","","","","","","","","","","","","","","","","","","","","","","",""
"html-button-response","2","2768","0.0-2.0","p034","3","2","","","","","","2625","","0","","","","","","","","","","","","","","","","","","","","","","",""
"coact-test-prompt","3","3787","0.0-3.0","p034","3","2","","","","","","1017","","","[""stims/images/frog.png"",""stims/images/wolf.png"",""stims/images/cow.png"",""stims/images/horse.png"",""stims/images/duck.png"",""stims/images/squirrel.png"",""stims/images/cat.png"",""stims/images/butterfly.png""]","cat","stims/images/cat.png","familiar","practice_pretest","familiar","","","","","","","","","","","","","","","","",""
"coact-test","4","21820","0.0-4.0","p034","3","2","","","","","","26022.32","","","[""stims/images/frog.png"",""stims/images/wolf.png"",""stims/images/cow.png"",""stims/images/horse.png"",""stims/images/duck.png"",""stims/images/squirrel.png"",""stims/images/cat.png"",""stims/images/butterfly.png""]","cat","","familiar","practice_pretest","familiar","stims/audio/find_cat.wav","6","stims/images/cat.png","1","","","","","","","","","","","","",""
"coact-test-prompt","5","24465","0.0-5.0","p034","3","2","","","","","","2644","","","[""stims/images/frog.png"",""stims/images/horse.png"",""stims/images/butterfly.png"",""stims/images/cow.png"",""stims/images/duck.png"",""stims/images/wolf.png"",""stims/images/squirrel.png"",""stims/images/cat.png""]","butterfly","stims/images/butterfly.png","familiar","practice_pretest","familiar","","","","","","","","","","","","","","","","",""
"coact-test","6","35473","0.0-6.0","p034","3","2","","","","","","39655.63733333333","","","[""stims/images/frog.png"",""stims/images/horse.png"",""stims/images/butterfly.png"",""stims/images/cow.png"",""stims/images/duck.png"",""stims/images/wolf.png"",""stims/images/squirrel.png"",""stims/images/cat.png""]","butterfly","","familiar","practice_pretest","familiar","stims/audio/find_butterfly.wav","2","stims/images/butterfly.png","1","","","","","","","","","","","","",""
"coact-test-prompt","7","40842","0.0-7.0","p034","3","2","","","","","","5369","","","[""stims/images/armadillo.png"",""stims/images/tapir.png"",""stims/images/lobster.png"",""stims/images/turtle.png"",""stims/images/porcupine.png"",""stims/images/antelope.png"",""stims/images/pangolin.png"",""stims/images/bear.png""]","lobster","stims/images/lobster.png","somewhat familiar","pretest","3","","","","","","","","","","","","","","","","",""
"coact-test","8","44453","0.0-8.0","p034","3","2","","","","","","48619.26133333334","","","[""stims/images/armadillo.png"",""stims/images/tapir.png"",""stims/images/lobster.png"",""stims/images/turtle.png"",""stims/images/porcupine.png"",""stims/images/antelope.png"",""stims/images/pangolin.png"",""stims/images/bear.png""]","lobster","","somewhat familiar","pretest","3","stims/audio/find_lobster.wav","2","stims/images/lobster.png","1","","","","","","","","","","","","",""
"coact-test-prompt","9","49329","0.0-9.0","p034","3","2","","","","","","4875","","","[""stims/images/turtle.png"",""stims/images/bear.png"",""stims/images/porcupine.png"",""stims/images/lobster.png"",""stims/images/tapir.png"",""stims/images/pangolin.png"",""stims/images/armadillo.png"",""stims/images/antelope.png""]","pangolin","stims/images/pangolin.png","unfamiliar","pretest","3","","","","","","","","","","","","","","","","",""
"coact-test","10","55400","0.0-10.0","p034","3","2","","","","","","59558.776000000005","","","[""stims/images/turtle.png"",""stims/images/bear.png"",""stims/images/porcupine.png"",""stims/images/lobster.png"",""stims/images/tapir.png"",""stims/images/pangolin.png"",""stims/images/armadillo.png"",""stims/images/antelope.png""]","pangolin","","unfamiliar","pretest","3","stims/audio/find_pangolin.wav","4","stims/images/tapir.png","0","","","","","","","","","","","","",""
"coact-test-prompt","11","60086","0.0-11.0","p034","3","2","","","","","","4685","","","[""stims/images/pangolin.png"",""stims/images/turtle.png"",""stims/images/armadillo.png"",""stims/images/bear.png"",""stims/images/antelope.png"",""stims/images/porcupine.png"",""stims/images/tapir.png"",""stims/images/lobster.png""]","antelope","stims/images/antelope.png","somewhat unfamiliar","pretest","3","","","","","","","","","","","","","","","","",""
"coact-test","12","64789","0.0-12.0","p034","3","2","","","","","","68937.01866666667","","","[""stims/images/pangolin.png"",""stims/images/turtle.png"",""stims/images/armadillo.png"",""stims/images/bear.png"",""stims/images/antelope.png"",""stims/images/porcupine.png"",""stims/images/tapir.png"",""stims/images/lobster.png""]","antelope","","somewhat unfamiliar","pretest","3","stims/audio/wheres_antelope.wav","5","stims/images/porcupine.png","0","","","","","","","","","","","","",""
"coact-test-prompt","13","68958","0.0-13.0","p034","3","2","","","","","","4169","","","[""stims/images/armadillo.png"",""stims/images/lobster.png"",""stims/images/antelope.png"",""stims/images/tapir.png"",""stims/images/porcupine.png"",""stims/images/turtle.png"",""stims/images/pangolin.png"",""stims/images/bear.png""]","armadillo","stims/images/armadillo.png","somewhat unfamiliar","pretest","3","","","","","","","","","","","","","","","","",""
"coact-test","14","74936","0.0-14.0","p034","3","2","","","","","","79076.14666666667","","","[""stims/images/armadillo.png"",""stims/images/lobster.png"",""stims/images/antelope.png"",""stims/images/tapir.png"",""stims/images/porcupine.png"",""stims/images/turtle.png"",""stims/images/pangolin.png"",""stims/images/bear.png""]","armadillo","","somewhat unfamiliar","pretest","3","stims/audio/find_armadillo.wav","4","stims/images/porcupine.png","0","","","","","","","","","","","","",""
"coact-test-prompt","15","80231","0.0-15.0","p034","3","2","","","","","","5294","","","[""stims/images/tapir.png"",""stims/images/turtle.png"",""stims/images/pangolin.png"",""stims/images/porcupine.png"",""stims/images/antelope.png"",""stims/images/armadillo.png"",""stims/images/lobster.png"",""stims/images/bear.png""]","turtle","stims/images/turtle.png","familiar","pretest","3","","","","","","","","","","","","","","","","",""
"coact-test","16","84606","0.0-16.0","p034","3","2","","","","","","88734.87466666667","","","[""stims/images/tapir.png"",""stims/images/turtle.png"",""stims/images/pangolin.png"",""stims/images/porcupine.png"",""stims/images/antelope.png"",""stims/images/armadillo.png"",""stims/images/lobster.png"",""stims/images/bear.png""]","turtle","","familiar","pretest","3","stims/audio/wheres_turtle.wav","1","stims/images/turtle.png","1","","","","","","","","","","","","",""
"coact-test-prompt","17","88868","0.0-17.0","p034","3","2","","","","","","4261.000000000015","","","[""stims/images/turtle.png"",""stims/images/pangolin.png"",""stims/images/lobster.png"",""stims/images/bear.png"",""stims/images/tapir.png"",""stims/images/antelope.png"",""stims/images/porcupine.png"",""stims/images/armadillo.png""]","tapir","stims/images/tapir.png","unfamiliar","pretest","3","","","","","","","","","","","","","","","","",""
"coact-test","18","93446","0.0-18.0","p034","3","2","","","","","","97567.23733333334","","","[""stims/images/turtle.png"",""stims/images/pangolin.png"",""stims/images/lobster.png"",""stims/images/bear.png"",""stims/images/tapir.png"",""stims/images/antelope.png"",""stims/images/porcupine.png"",""stims/images/armadillo.png""]","tapir","","unfamiliar","pretest","3","stims/audio/wheres_tapir.wav","4","stims/images/tapir.png","1","","","","","","","","","","","","",""
"coact-test-prompt","19","95011","0.0-19.0","p034","3","2","","","","","","1564","","","[""stims/images/pangolin.png"",""stims/images/bear.png"",""stims/images/tapir.png"",""stims/images/porcupine.png"",""stims/images/lobster.png"",""stims/images/armadillo.png"",""stims/images/turtle.png"",""stims/images/antelope.png""]","porcupine","stims/images/porcupine.png","somewhat familiar","pretest","3","","","","","","","","","","","","","","","","",""
"coact-test","20","97958","0.0-20.0","p034","3","2","","","","","","102073.09333333334","","","[""stims/images/pangolin.png"",""stims/images/bear.png"",""stims/images/tapir.png"",""stims/images/porcupine.png"",""stims/images/lobster.png"",""stims/images/armadillo.png"",""stims/images/turtle.png"",""stims/images/antelope.png""]","porcupine","","somewhat familiar","pretest","3","stims/audio/wheres_porcupine.wav","3","stims/images/porcupine.png","1","","","","","","","","","","","","",""
"coact-test-prompt","21","99774","0.0-21.0","p034","3","2","","","","","","1815","","","[""stims/images/pangolin.png"",""stims/images/bear.png"",""stims/images/tapir.png"",""stims/images/antelope.png"",""stims/images/lobster.png"",""stims/images/turtle.png"",""stims/images/armadillo.png"",""stims/images/porcupine.png""]","bear","stims/images/bear.png","familiar","pretest","3","","","","","","","","","","","","","","","","",""
"coact-test","22","103411","0.0-22.0","p034","3","2","","","","","","107521.33066666668","","","[""stims/images/pangolin.png"",""stims/images/bear.png"",""stims/images/tapir.png"",""stims/images/antelope.png"",""stims/images/lobster.png"",""stims/images/turtle.png"",""stims/images/armadillo.png"",""stims/images/porcupine.png""]","bear","","familiar","pretest","3","stims/audio/find_bear.wav","1","stims/images/bear.png","1","","","","","","","","","","","","",""
"html-button-response","23","114140","0.0-23.0","p034","3","2","","","","","","10727","","0","","","","","","","","","","","","","","","","","","","","","","",""
"coact-grid","24","117768","0.0-24.0","p034","3","2","","","","","","2319","","","[""stims/images/wolf.png"",""stims/images/butterfly.png"",""stims/images/cat.png"",""stims/images/horse.png"",""stims/images/duck.png"",""stims/images/cow.png"",""stims/images/frog.png"",""stims/images/squirrel.png""]","","","","","familiar","","","","","[4,6]","[""stims/images/duck.png"",""stims/images/frog.png""]","[""duck"",""frog""]","[""stims/audio/thats_duck.wav"",""stims/audio/thats_frog.wav""]","right","[""stims/images/frog.png"",""stims/images/duck.png""]","[""stims/audio/thats_frog.wav"",""stims/audio/thats_duck.wav""]","[""frog"",""duck""]","passive","0","","",""
"coact-grid-choice","25","119221","0.0-25.0","p034","3","2","","","","","","1450","","","[""stims/images/wolf.png"",""stims/images/butterfly.png"",""stims/images/cat.png"",""stims/images/horse.png"",""stims/images/duck.png"",""stims/images/cow.png"",""stims/images/frog.png"",""stims/images/squirrel.png""]","","","","","familiar","","","stims/images/duck.png","","","[""stims/images/duck.png"",""stims/images/frog.png""]","","","","[""stims/images/frog.png"",""stims/images/duck.png""]","[""stims/audio/thats_frog.wav"",""stims/audio/thats_duck.wav""]","[""frog"",""duck""]","active","0","1","stims/audio/thats_duck.wav","[""stims/images/frog.png"",""stims/images/duck.png""]"
"coact-grid-choice-audio","26","122235","0.0-26.0","p034","3","2","","","","","","3000","","","[""stims/images/wolf.png"",""stims/images/butterfly.png"",""stims/images/cat.png"",""stims/images/horse.png"",""stims/images/duck.png"",""stims/images/cow.png"",""stims/images/frog.png"",""stims/images/squirrel.png""]","","","","","familiar","","","stims/images/duck.png","","","","","","","","","","active","0","","stims/audio/thats_duck.wav","[""stims/images/frog.png"",""stims/images/duck.png""]"
"coact-grid","27","127228","0.0-27.0","p034","3","2","","","","","","3687","","","[""stims/images/pangolin.png"",""stims/images/armadillo.png"",""stims/images/lobster.png"",""stims/images/turtle.png"",""stims/images/antelope.png"",""stims/images/porcupine.png"",""stims/images/tapir.png"",""stims/images/bear.png""]","","","","","3","","","","","[2,4]","[""stims/images/lobster.png"",""stims/images/antelope.png""]","[""lobster"",""antelope""]","[""stims/audio/its_lobster.wav"",""stims/audio/its_antelope.wav""]","right","[""stims/images/antelope.png"",""stims/images/lobster.png""]","[""stims/audio/its_antelope.wav"",""stims/audio/its_lobster.wav""]","[""antelope"",""lobster""]","passive","0","","",""
"coact-grid-choice","28","129060","0.0-28.0","p034","3","2","","","","","","1831","","","[""stims/images/pangolin.png"",""stims/images/armadillo.png"",""stims/images/lobster.png"",""stims/images/turtle.png"",""stims/images/antelope.png"",""stims/images/porcupine.png"",""stims/images/tapir.png"",""stims/images/bear.png""]","","","","","3","","","stims/images/lobster.png","","","[""stims/images/lobster.png"",""stims/images/antelope.png""]","","","","[""stims/images/antelope.png"",""stims/images/lobster.png""]","[""stims/audio/its_antelope.wav"",""stims/audio/its_lobster.wav""]","[""antelope"",""lobster""]","active","0","1","stims/audio/its_lobster.wav","[""stims/images/antelope.png"",""stims/images/lobster.png""]"
"coact-grid-choice-audio","29","132073","0.0-29.0","p034","3","2","","","","","","3003","","","[""stims/images/pangolin.png"",""stims/images/armadillo.png"",""stims/images/lobster.png"",""stims/images/turtle.png"",""stims/images/antelope.png"",""stims/images/porcupine.png"",""stims/images/tapir.png"",""stims/images/bear.png""]","","","","","3","","","stims/images/lobster.png","","","","","","","","","","active","0","","stims/audio/its_lobster.wav","[""stims/images/antelope.png"",""stims/images/lobster.png""]"
"coact-grid","30","136243","0.0-30.0","p034","3","2","","","","","","2861.999999999971","","","[""stims/images/armadillo.png"",""stims/images/bear.png"",""stims/images/porcupine.png"",""stims/images/tapir.png"",""stims/images/lobster.png"",""stims/images/turtle.png"",""stims/images/antelope.png"",""stims/images/pangolin.png""]","","","","","3","","","","","[2,0]","[""stims/images/porcupine.png"",""stims/images/armadillo.png""]","[""porcupine"",""armadillo""]","[""stims/audio/thats_porcupine.wav"",""stims/audio/thats_armadillo.wav""]","left","[""stims/images/porcupine.png"",""stims/images/armadillo.png""]","[""stims/audio/thats_porcupine.wav"",""stims/audio/thats_armadillo.wav""]","[""porcupine"",""armadillo""]","passive","1","","",""
"coact-grid-choice","31","138364","0.0-31.0","p034","3","2","","","","","","2120","","","[""stims/images/armadillo.png"",""stims/images/bear.png"",""stims/images/porcupine.png"",""stims/images/tapir.png"",""stims/images/lobster.png"",""stims/images/turtle.png"",""stims/images/antelope.png"",""stims/images/pangolin.png""]","","","","","3","","","stims/images/armadillo.png","","","[""stims/images/porcupine.png"",""stims/images/armadillo.png""]","","","","[""stims/images/porcupine.png"",""stims/images/armadillo.png""]","[""stims/audio/thats_porcupine.wav"",""stims/audio/thats_armadillo.wav""]","[""porcupine"",""armadillo""]","active","1","1","stims/audio/thats_armadillo.wav","[""stims/images/porcupine.png"",""stims/images/armadillo.png""]"
"coact-grid-choice-audio","32","141374","0.0-32.0","p034","3","2","","","","","","3003","","","[""stims/images/armadillo.png"",""stims/images/bear.png"",""stims/images/porcupine.png"",""stims/images/tapir.png"",""stims/images/lobster.png"",""stims/images/turtle.png"",""stims/images/antelope.png"",""stims/images/pangolin.png""]","","","","","3","","","stims/images/armadillo.png","","","","","","","","","","active","1","","stims/audio/thats_armadillo.wav","[""stims/images/porcupine.png"",""stims/images/armadillo.png""]"
"coact-grid","33","145090","0.0-33.0","p034","3","2","","","","","","2410","","","[""stims/images/antelope.png"",""stims/images/pangolin.png"",""stims/images/armadillo.png"",""stims/images/porcupine.png"",""stims/images/bear.png"",""stims/images/turtle.png"",""stims/images/lobster.png"",""stims/images/tapir.png""]","","","","","3","","","","","[3,1]","[""stims/images/porcupine.png"",""stims/images/pangolin.png""]","[""porcupine"",""pangolin""]","[""stims/audio/its_porcupine.wav"",""stims/audio/its_pangolin.wav""]","left","[""stims/images/porcupine.png"",""stims/images/pangolin.png""]","[""stims/audio/its_porcupine.wav"",""stims/audio/its_pangolin.wav""]","[""porcupine"",""pangolin""]","passive","2","","",""
"coact-grid-choice","34","148138","0.0-34.0","p034","3","2","","","","","","3047","","","[""stims/images/antelope.png"",""stims/images/pangolin.png"",""stims/images/armadillo.png"",""stims/images/porcupine.png"",""stims/images/bear.png"",""stims/images/turtle.png"",""stims/images/lobster.png"",""stims/images/tapir.png""]","","","","","3","","","stims/images/porcupine.png","","","[""stims/images/porcupine.png"",""stims/images/pangolin.png""]","","","","[""stims/images/porcupine.png"",""stims/images/pangolin.png""]","[""stims/audio/its_porcupine.wav"",""stims/audio/its_pangolin.wav""]","[""porcupine"",""pangolin""]","active","2","0","stims/audio/its_porcupine.wav","[""stims/images/porcupine.png"",""stims/images/pangolin.png""]"
"coact-grid-choice-audio","35","151150","0.0-35.0","p034","3","2","","","","","","3003","","","[""stims/images/antelope.png"",""stims/images/pangolin.png"",""stims/images/armadillo.png"",""stims/images/porcupine.png"",""stims/images/bear.png"",""stims/images/turtle.png"",""stims/images/lobster.png"",""stims/images/tapir.png""]","","","","","3","","","stims/images/porcupine.png","","","","","","","","","","active","2","","stims/audio/its_porcupine.wav","[""stims/images/porcupine.png"",""stims/images/pangolin.png""]"
"coact-grid","36","154670","0.0-36.0","p034","3","2","","","","","","2212","","","[""stims/images/antelope.png"",""stims/images/pangolin.png"",""stims/images/porcupine.png"",""stims/images/turtle.png"",""stims/images/tapir.png"",""stims/images/lobster.png"",""stims/images/bear.png"",""stims/images/armadillo.png""]","","","","","3","","","","","[0,2]","[""stims/images/antelope.png"",""stims/images/porcupine.png""]","[""antelope"",""porcupine""]","[""stims/audio/its_antelope.wav"",""stims/audio/its_porcupine.wav""]","left","[""stims/images/antelope.png"",""stims/images/porcupine.png""]","[""stims/audio/its_antelope.wav"",""stims/audio/its_porcupine.wav""]","[""antelope"",""porcupine""]","passive","3","","",""
"coact-grid-choice","37","156293","0.0-37.0","p034","3","2","","","","","","1620","","","[""stims/images/antelope.png"",""stims/images/pangolin.png"",""stims/images/porcupine.png"",""stims/images/turtle.png"",""stims/images/tapir.png"",""stims/images/lobster.png"",""stims/images/bear.png"",""stims/images/armadillo.png""]","","","","","3","","","stims/images/porcupine.png","","","[""stims/images/antelope.png"",""stims/images/porcupine.png""]","","","","[""stims/images/antelope.png"",""stims/images/porcupine.png""]","[""stims/audio/its_antelope.wav"",""stims/audio/its_porcupine.wav""]","[""antelope"",""porcupine""]","active","3","1","stims/audio/its_porcupine.wav","[""stims/images/antelope.png"",""stims/images/porcupine.png""]"
"coact-grid-choice-audio","38","159303","0.0-38.0","p034","3","2","","","","","","3000","","","[""stims/images/antelope.png"",""stims/images/pangolin.png"",""stims/images/porcupine.png"",""stims/images/turtle.png"",""stims/images/tapir.png"",""stims/images/lobster.png"",""stims/images/bear.png"",""stims/images/armadillo.png""]","","","","","3","","","stims/images/porcupine.png","","","","","","","","","","active","3","","stims/audio/its_porcupine.wav","[""stims/images/antelope.png"",""stims/images/porcupine.png""]"
"coact-grid","39","162924","0.0-39.0","p034","3","2","","","","","","2315","","","[""stims/images/antelope.png"",""stims/images/pangolin.png"",""stims/images/turtle.png"",""stims/images/bear.png"",""stims/images/lobster.png"",""stims/images/armadillo.png"",""stims/images/tapir.png"",""stims/images/porcupine.png""]","","","","","3","","","","","[3,1]","[""stims/images/bear.png"",""stims/images/pangolin.png""]","[""bear"",""pangolin""]","[""stims/audio/thats_bear.wav"",""stims/audio/thats_pangolin.wav""]","right","[""stims/images/pangolin.png"",""stims/images/bear.png""]","[""stims/audio/thats_pangolin.wav"",""stims/audio/thats_bear.wav""]","[""pangolin"",""bear""]","passive","4","","",""
"coact-grid-choice","40","164129","0.0-40.0","p034","3","2","","","","","","1204","","","[""stims/images/antelope.png"",""stims/images/pangolin.png"",""stims/images/turtle.png"",""stims/images/bear.png"",""stims/images/lobster.png"",""stims/images/armadillo.png"",""stims/images/tapir.png"",""stims/images/porcupine.png""]","","","","","3","","","stims/images/bear.png","","","[""stims/images/bear.png"",""stims/images/pangolin.png""]","","","","[""stims/images/pangolin.png"",""stims/images/bear.png""]","[""stims/audio/thats_pangolin.wav"",""stims/audio/thats_bear.wav""]","[""pangolin"",""bear""]","active","4","1","stims/audio/thats_bear.wav","[""stims/images/pangolin.png"",""stims/images/bear.png""]"
"coact-grid-choice-audio","41","167139","0.0-41.0","p034","3","2","","","","","","3003","","","[""stims/images/antelope.png"",""stims/images/pangolin.png"",""stims/images/turtle.png"",""stims/images/bear.png"",""stims/images/lobster.png"",""stims/images/armadillo.png"",""stims/images/tapir.png"",""stims/images/porcupine.png""]","","","","","3","","","stims/images/bear.png","","","","","","","","","","active","4","","stims/audio/thats_bear.wav","[""stims/images/pangolin.png"",""stims/images/bear.png""]"
"coact-grid","42","171402","0.0-42.0","p034","3","2","","","","","","2954","","","[""stims/images/antelope.png"",""stims/images/bear.png"",""stims/images/armadillo.png"",""stims/images/lobster.png"",""stims/images/porcupine.png"",""stims/images/tapir.png"",""stims/images/turtle.png"",""stims/images/pangolin.png""]","","","","","3","","","","","[6,7]","[""stims/images/turtle.png"",""stims/images/pangolin.png""]","[""turtle"",""pangolin""]","[""stims/audio/thats_turtle.wav"",""stims/audio/thats_pangolin.wav""]","right","[""stims/images/pangolin.png"",""stims/images/turtle.png""]","[""stims/audio/thats_pangolin.wav"",""stims/audio/thats_turtle.wav""]","[""pangolin"",""turtle""]","passive","5","","",""
"coact-grid-choice","43","172852","0.0-43.0","p034","3","2","","","","","","1448","","","[""stims/images/antelope.png"",""stims/images/bear.png"",""stims/images/armadillo.png"",""stims/images/lobster.png"",""stims/images/porcupine.png"",""stims/images/tapir.png"",""stims/images/turtle.png"",""stims/images/pangolin.png""]","","","","","3","","","stims/images/turtle.png","","","[""stims/images/turtle.png"",""stims/images/pangolin.png""]","","","","[""stims/images/pangolin.png"",""stims/images/turtle.png""]","[""stims/audio/thats_pangolin.wav"",""stims/audio/thats_turtle.wav""]","[""pangolin"",""turtle""]","active","5","1","stims/audio/thats_turtle.wav","[""stims/images/pangolin.png"",""stims/images/turtle.png""]"
"coact-grid-choice-audio","44","175862","0.0-44.0","p034","3","2","","","","","","3000","","","[""stims/images/antelope.png"",""stims/images/bear.png"",""stims/images/armadillo.png"",""stims/images/lobster.png"",""stims/images/porcupine.png"",""stims/images/tapir.png"",""stims/images/turtle.png"",""stims/images/pangolin.png""]","","","","","3","","","stims/images/turtle.png","","","","","","","","","","active","5","","stims/audio/thats_turtle.wav","[""stims/images/pangolin.png"",""stims/images/turtle.png""]"
"html-button-response","45","198280","0.0-45.0","p034","3","2","","","","","","22417","","0","","","","","","","","","","","","","","","","","","","","","","",""
"coact-test-prompt","46","199599","0.0-46.0","p034","3","2","","","","","","1318","","","[""stims/images/squirrel.png"",""stims/images/frog.png"",""stims/images/cow.png"",""stims/images/duck.png"",""stims/images/wolf.png"",""stims/images/butterfly.png"",""stims/images/horse.png"",""stims/images/cat.png""]","cat","stims/images/cat.png","familiar","practice_posttest","familiar","","","","","","","","","","","","","","","","",""
"coact-test","47","203685","0.0-47.0","p034","3","2","","","","","","207701.50666666665","","","[""stims/images/squirrel.png"",""stims/images/frog.png"",""stims/images/cow.png"",""stims/images/duck.png"",""stims/images/wolf.png"",""stims/images/butterfly.png"",""stims/images/horse.png"",""stims/images/cat.png""]","cat","","familiar","practice_posttest","familiar","stims/audio/wheres_cat.wav","7","stims/images/cat.png","1","","","","","","","","","","","","",""
"coact-test-prompt","48","216390","0.0-48.0","p034","3","2","","","","","","12705","","","[""stims/images/duck.png"",""stims/images/squirrel.png"",""stims/images/cow.png"",""stims/images/wolf.png"",""stims/images/frog.png"",""stims/images/cat.png"",""stims/images/butterfly.png"",""stims/images/horse.png""]","butterfly","stims/images/butterfly.png","familiar","practice_posttest","familiar","","","","","","","","","","","","","","","","",""
"coact-test","49","227428","0.0-49.0","p034","3","2","","","","","","231429.7146666667","","","[""stims/images/duck.png"",""stims/images/squirrel.png"",""stims/images/cow.png"",""stims/images/wolf.png"",""stims/images/frog.png"",""stims/images/cat.png"",""stims/images/butterfly.png"",""stims/images/horse.png""]","butterfly","","familiar","practice_posttest","familiar","stims/audio/find_butterfly.wav","6","stims/images/butterfly.png","1","","","","","","","","","","","","",""
"coact-test-prompt","50","233126","0.0-50.0","p034","3","2","","","","","","5697","","","[""stims/images/tapir.png"",""stims/images/lobster.png"",""stims/images/porcupine.png"",""stims/images/turtle.png"",""stims/images/antelope.png"",""stims/images/pangolin.png"",""stims/images/bear.png"",""stims/images/armadillo.png""]","bear","stims/images/bear.png","familiar","posttest","3","","","","","","","","","","","","","","","","",""
"coact-test","51","236778","0.0-51.0","p034","3","2","","","","","","240761.97866666666","","","[""stims/images/tapir.png"",""stims/images/lobster.png"",""stims/images/porcupine.png"",""stims/images/turtle.png"",""stims/images/antelope.png"",""stims/images/pangolin.png"",""stims/images/bear.png"",""stims/images/armadillo.png""]","bear","","familiar","posttest","3","stims/audio/find_bear.wav","6","stims/images/bear.png","1","","","","","","","","","","","","",""
"coact-test-prompt","52","238964","0.0-52.0","p034","3","2","","","","","","2184.999999999971","","","[""stims/images/bear.png"",""stims/images/tapir.png"",""stims/images/antelope.png"",""stims/images/porcupine.png"",""stims/images/pangolin.png"",""stims/images/turtle.png"",""stims/images/lobster.png"",""stims/images/armadillo.png""]","pangolin","stims/images/pangolin.png","unfamiliar","posttest","3","","","","","","","","","","","","","","","","",""
"coact-test","53","244025","0.0-53.0","p034","3","2","","","","","","248004.144","","","[""stims/images/bear.png"",""stims/images/tapir.png"",""stims/images/antelope.png"",""stims/images/porcupine.png"",""stims/images/pangolin.png"",""stims/images/turtle.png"",""stims/images/lobster.png"",""stims/images/armadillo.png""]","pangolin","","unfamiliar","posttest","3","stims/audio/wheres_pangolin.wav","3","stims/images/porcupine.png","0","","","","","","","","","","","","",""
"coact-test-prompt","54","245767","0.0-54.0","p034","3","2","","","","","","1741","","","[""stims/images/bear.png"",""stims/images/tapir.png"",""stims/images/pangolin.png"",""stims/images/armadillo.png"",""stims/images/antelope.png"",""stims/images/turtle.png"",""stims/images/lobster.png"",""stims/images/porcupine.png""]","tapir","stims/images/tapir.png","unfamiliar","posttest","3","","","","","","","","","","","","","","","","",""
"coact-test","55","268730","0.0-55.0","p034","3","2","","","","","","272704.33866666665","","","[""stims/images/bear.png"",""stims/images/tapir.png"",""stims/images/pangolin.png"",""stims/images/armadillo.png"",""stims/images/antelope.png"",""stims/images/turtle.png"",""stims/images/lobster.png"",""stims/images/porcupine.png""]","tapir","","unfamiliar","posttest","3","stims/audio/wheres_tapir.wav","1","stims/images/tapir.png","1","","","","","","","","","","","","",""
"coact-test-prompt","56","279162","0.0-56.0","p034","3","2","","","","","","10431","","","[""stims/images/lobster.png"",""stims/images/antelope.png"",""stims/images/turtle.png"",""stims/images/pangolin.png"",""stims/images/porcupine.png"",""stims/images/tapir.png"",""stims/images/bear.png"",""stims/images/armadillo.png""]","lobster","stims/images/lobster.png","somewhat familiar","posttest","3","","","","","","","","","","","","","","","","",""
"coact-test","57","285234","0.0-57.0","p034","3","2","","","","","","289174.944","","","[""stims/images/lobster.png"",""stims/images/antelope.png"",""stims/images/turtle.png"",""stims/images/pangolin.png"",""stims/images/porcupine.png"",""stims/images/tapir.png"",""stims/images/bear.png"",""stims/images/armadillo.png""]","lobster","","somewhat familiar","posttest","3","stims/audio/find_lobster.wav","0","stims/images/lobster.png","1","","","","","","","","","","","","",""
"coact-test-prompt","58","288901","0.0-58.0","p034","3","2","","","","","","3667","","","[""stims/images/turtle.png"",""stims/images/antelope.png"",""stims/images/bear.png"",""stims/images/tapir.png"",""stims/images/pangolin.png"",""stims/images/armadillo.png"",""stims/images/lobster.png"",""stims/images/porcupine.png""]","turtle","stims/images/turtle.png","familiar","posttest","3","","","","","","","","","","","","","","","","",""
"coact-test","59","297573","0.0-59.0","p034","3","2","","","","","","301505.20533333335","","","[""stims/images/turtle.png"",""stims/images/antelope.png"",""stims/images/bear.png"",""stims/images/tapir.png"",""stims/images/pangolin.png"",""stims/images/armadillo.png"",""stims/images/lobster.png"",""stims/images/porcupine.png""]","turtle","","familiar","posttest","3","stims/audio/find_turtle.wav","0","stims/images/turtle.png","1","","","","","","","","","","","","",""
"coact-test-prompt","60","306152","0.0-60.0","p034","3","2","","","","","","8579","","","[""stims/images/bear.png"",""stims/images/turtle.png"",""stims/images/porcupine.png"",""stims/images/pangolin.png"",""stims/images/armadillo.png"",""stims/images/lobster.png"",""stims/images/antelope.png"",""stims/images/tapir.png""]","antelope","stims/images/antelope.png","somewhat unfamiliar","posttest","3","","","","","","","","","","","","","","","","",""
"coact-test","61","315543","0.0-61.0","p034","3","2","","","","","","319458.952","","","[""stims/images/bear.png"",""stims/images/turtle.png"",""stims/images/porcupine.png"",""stims/images/pangolin.png"",""stims/images/armadillo.png"",""stims/images/lobster.png"",""stims/images/antelope.png"",""stims/images/tapir.png""]","antelope","","somewhat unfamiliar","posttest","3","stims/audio/wheres_antelope.wav","4","stims/images/armadillo.png","0","","","","","","","","","","","","",""
"coact-test-prompt","62","320880","0.0-62.0","p034","3","2","","","","","","5335","","","[""stims/images/porcupine.png"",""stims/images/tapir.png"",""stims/images/lobster.png"",""stims/images/armadillo.png"",""stims/images/turtle.png"",""stims/images/antelope.png"",""stims/images/bear.png"",""stims/images/pangolin.png""]","porcupine","stims/images/porcupine.png","somewhat familiar","posttest","3","","","","","","","","","","","","","","","","",""
"coact-test","63","326460","0.0-63.0","p034","3","2","","","","","","330362.224","","","[""stims/images/porcupine.png"",""stims/images/tapir.png"",""stims/images/lobster.png"",""stims/images/armadillo.png"",""stims/images/turtle.png"",""stims/images/antelope.png"",""stims/images/bear.png"",""stims/images/pangolin.png""]","porcupine","","somewhat familiar","posttest","3","stims/audio/find_porcupine.wav","3","stims/images/armadillo.png","0","","","","","","","","","","","","",""
"coact-test-prompt","64","329537","0.0-64.0","p034","3","2","","","","","","3076","","","[""stims/images/tapir.png"",""stims/images/armadillo.png"",""stims/images/porcupine.png"",""stims/images/lobster.png"",""stims/images/turtle.png"",""stims/images/pangolin.png"",""stims/images/bear.png"",""stims/images/antelope.png""]","armadillo","stims/images/armadillo.png","somewhat unfamiliar","posttest","3","","","","","","","","","","","","","","","","",""
"coact-test","65","340500","0.0-65.0","p034","3","2","","","","","","344393.568","","","[""stims/images/tapir.png"",""stims/images/armadillo.png"",""stims/images/porcupine.png"",""stims/images/lobster.png"",""stims/images/turtle.png"",""stims/images/pangolin.png"",""stims/images/bear.png"",""stims/images/antelope.png""]","armadillo","","somewhat unfamiliar","posttest","3","stims/audio/wheres_armadillo.wav","5","stims/images/pangolin.png","0","","","","","","","","","","","","",""
