"trial_type","trial_index","time_elapsed","internal_node_id","subject_id","round_name","round_index","success","timeout","failed_images","failed_audio","failed_video","rt","stimulus","response","images","target","target_image","target_type","round_type","set","test_audio","choice","chosen_image","correct","choices","chosen_images","chosen_items","chosen_audio_items","first_choice_location","chosen_images_in_order","chosen_audio_in_order","chosen_items_in_order","condition","sample_num","chosen_index","chosen_audio","central_images"
"pavlovia","0","3","0.0-0.0","p091","4","3","","","","","","","","","","","","","","","","","","","","","","","","","","","","","","",""
"preload","1","84","0.0-1.0","p091","4","3","true","false","[]","[]","[]","","","","","","","","","","","","","","","","","","","","","","","","","",""
"html-button-response","2","9758","0.0-2.0","p091","4","3","","","","","","9673","","0","","","","","","","","","","","","","","","","","","","","","","",""
"coact-test-prompt","3","12957","0.0-3.0","p091","4","3","","","","","","3198.0000000000036","","","[""stims/images/squirrel.png"",""stims/images/frog.png"",""stims/images/wolf.png"",""stims/images/cat.png"",""stims/images/cow.png"",""stims/images/duck.png"",""stims/images/horse.png"",""stims/images/butterfly.png""]","frog","stims/images/frog.png","familiar","practice_pretest","familiar","","","","","","","","","","","","","","","","",""
"coact-test","4","18103","0.0-4.0","p091","4","3","","","","","","25336.069333333333","","","[""stims/images/squirrel.png"",""stims/images/frog.png"",""stims/images/wolf.png"",""stims/images/cat.png"",""stims/images/cow.png"",""stims/images/duck.png"",""stims/images/horse.png"",""stims/images/butterfly.png""]","frog","","familiar","practice_pretest","familiar","stims/audio/wheres_frog.wav","1","stims/images/frog.png","1","","","","","","","","","","","","",""
"coact-test-prompt","5","21957","0.0-5.0","p091","4","3","","","","","","3852.0000000000036","","","[""stims/images/duck.png"",""stims/images/squirrel.png"",""stims/images/frog.png"",""stims/images/cow.png"",""stims/images/cat.png"",""stims/images/wolf.png"",""stims/images/butterfly.png"",""stims/images/horse.png""]","cow","stims/images/cow.png","familiar","practice_pretest","familiar","","","","","","","","","","","","","","","","",""
"coact-test","6","26257","0.0-6.0","p091","4","3","","","","","","33482.06933333333","","","[""stims/images/duck.png"",""stims/images/squirrel.png"",""stims/images/frog.png"",""stims/images/cow.png"",""stims/images/cat.png"",""stims/images/wolf.png"",""stims/images/butterfly.png"",""stims/images/horse.png""]","cow","","familiar","practice_pretest","familiar","stims/audio/find_cow.wav","3","stims/images/cow.png","1","","","","","","","","","","","","",""
"coact-test-prompt","7","29153","0.0-7.0","p091","4","3","","","","","","2894","","","[""stims/images/koala.png"",""stims/images/tiger.png"",""stims/images/nyala.png"",""stims/images/alpaca.png"",""stims/images/narwhal.png"",""stims/images/manatee.png"",""stims/images/rabbit.png"",""stims/images/flamingo.png""]","koala","stims/images/koala.png","somewhat familiar","pretest","4","","","","","","","","","","","","","","","","",""
"coact-test","8","36139","0.0-8.0","p091","4","3","","","","","","43356.87466666667","","","[""stims/images/koala.png"",""stims/images/tiger.png"",""stims/images/nyala.png"",""stims/images/alpaca.png"",""stims/images/narwhal.png"",""stims/images/manatee.png"",""stims/images/rabbit.png"",""stims/images/flamingo.png""]","koala","","somewhat familiar","pretest","4","stims/audio/find_koala.wav","0","stims/images/koala.png","1","","","","","","","","","","","","",""
"coact-test-prompt","9","39983","0.0-9.0","p091","4","3","","","","","","3843","","","[""stims/images/koala.png"",""stims/images/manatee.png"",""stims/images/narwhal.png"",""stims/images/rabbit.png"",""stims/images/tiger.png"",""stims/images/flamingo.png"",""stims/images/nyala.png"",""stims/images/alpaca.png""]","manatee","stims/images/manatee.png","somewhat unfamiliar","pretest","4","","","","","","","","","","","","","","","","",""
"coact-test","10","46012","0.0-10.0","p091","4","3","","","","","","53220.045333333335","","","[""stims/images/koala.png"",""stims/images/manatee.png"",""stims/images/narwhal.png"",""stims/images/rabbit.png"",""stims/images/tiger.png"",""stims/images/flamingo.png"",""stims/images/nyala.png"",""stims/images/alpaca.png""]","manatee","","somewhat unfamiliar","pretest","4","stims/audio/find_manatee.wav","1","stims/images/manatee.png","1","","","","","","","","","","","","",""
"coact-test-prompt","11","51531","0.0-11.0","p091","4","3","","","","","","5518","","","[""stims/images/nyala.png"",""stims/images/koala.png"",""stims/images/narwhal.png"",""stims/images/flamingo.png"",""stims/images/tiger.png"",""stims/images/rabbit.png"",""stims/images/alpaca.png"",""stims/images/manatee.png""]","rabbit","stims/images/rabbit.png","familiar","pretest","4","","","","","","","","","","","","","","","","",""
"coact-test","12","55214","0.0-12.0","p091","4","3","","","","","","62410.496","","","[""stims/images/nyala.png"",""stims/images/koala.png"",""stims/images/narwhal.png"",""stims/images/flamingo.png"",""stims/images/tiger.png"",""stims/images/rabbit.png"",""stims/images/alpaca.png"",""stims/images/manatee.png""]","rabbit","","familiar","pretest","4","stims/audio/find_rabbit.wav","5","stims/images/rabbit.png","1","","","","","","","","","","","","",""
"coact-test-prompt","13","59359","0.0-13.0","p091","4","3","","","","","","4144","","","[""stims/images/koala.png"",""stims/images/manatee.png"",""stims/images/rabbit.png"",""stims/images/tiger.png"",""stims/images/flamingo.png"",""stims/images/narwhal.png"",""stims/images/nyala.png"",""stims/images/alpaca.png""]","alpaca","stims/images/alpaca.png","somewhat unfamiliar","pretest","4","","","","","","","","","","","","","","","","",""
"coact-test","14","67863","0.0-14.0","p091","4","3","","","","","","75052.66933333334","","","[""stims/images/koala.png"",""stims/images/manatee.png"",""stims/images/rabbit.png"",""stims/images/tiger.png"",""stims/images/flamingo.png"",""stims/images/narwhal.png"",""stims/images/nyala.png"",""stims/images/alpaca.png""]","alpaca","","somewhat unfamiliar","pretest","4","stims/audio/wheres_alpaca.wav","6","stims/images/nyala.png","0","","","","","","","","","","","","",""
"coact-test-prompt","15","71334","0.0-15.0","p091","4","3","","","","","","3470.0000000000146","","","[""stims/images/tiger.png"",""stims/images/rabbit.png"",""stims/images/koala.png"",""stims/images/flamingo.png"",""stims/images/nyala.png"",""stims/images/narwhal.png"",""stims/images/alpaca.png"",""stims/images/manatee.png""]","flamingo","stims/images/flamingo.png","somewhat familiar","pretest","4","","","","","","","","","","","","","","","","",""
"coact-test","16","75026","0.0-16.0","p091","4","3","","","","","","82204.69333333333","","","[""stims/images/tiger.png"",""stims/images/rabbit.png"",""stims/images/koala.png"",""stims/images/flamingo.png"",""stims/images/nyala.png"",""stims/images/narwhal.png"",""stims/images/alpaca.png"",""stims/images/manatee.png""]","flamingo","","somewhat familiar","pretest","4","stims/audio/find_flamingo.wav","3","stims/images/flamingo.png","1","","","","","","","","","","","","",""
"coact-test-prompt","17","78474","0.0-17.0","p091","4","3","","","","","","3447.0000000000146","","","[""stims/images/narwhal.png"",""stims/images/flamingo.png"",""stims/images/rabbit.png"",""stims/images/nyala.png"",""stims/images/alpaca.png"",""stims/images/tiger.png"",""stims/images/koala.png"",""stims/images/manatee.png""]","narwhal","stims/images/narwhal.png","unfamiliar","pretest","4","","","","","","","","","","","","","","","","",""
"coact-test","18","82383","0.0-18.0","p091","4","3","","","","","","89554.55466666666","","","[""stims/images/narwhal.png"",""stims/images/flamingo.png"",""stims/images/rabbit.png"",""stims/images/nyala.png"",""stims/images/alpaca.png"",""stims/images/tiger.png"",""stims/images/koala.png"",""stims/images/manatee.png""]","narwhal","","unfamiliar","pretest","4","stims/audio/wheres_narwhal.wav","0","stims/images/narwhal.png","1","","","","","","","","","","","","",""
"coact-test-prompt","19","86361","0.0-19.0","p091","4","3","","","","","","3978","","","[""stims/images/tiger.png"",""stims/images/nyala.png"",""stims/images/manatee.png"",""stims/images/alpaca.png"",""stims/images/koala.png"",""stims/images/flamingo.png"",""stims/images/rabbit.png"",""stims/images/narwhal.png""]","tiger","stims/images/tiger.png","familiar","pretest","4","","","","","","","","","","","","","","","","",""
"coact-test","20","89469","0.0-20.0","p091","4","3","","","","","","96633.66666666667","","","[""stims/images/tiger.png"",""stims/images/nyala.png"",""stims/images/manatee.png"",""stims/images/alpaca.png"",""stims/images/koala.png"",""stims/images/flamingo.png"",""stims/images/rabbit.png"",""stims/images/narwhal.png""]","tiger","","familiar","pretest","4","stims/audio/wheres_tiger.wav","0","stims/images/tiger.png","1","","","","","","","","","","","","",""
"coact-test-prompt","21","92072","0.0-21.0","p091","4","3","","","","","","2601","","","[""stims/images/flamingo.png"",""stims/images/narwhal.png"",""stims/images/manatee.png"",""stims/images/rabbit.png"",""stims/images/koala.png"",""stims/images/tiger.png"",""stims/images/nyala.png"",""stims/images/alpaca.png""]","nyala","stims/images/nyala.png","unfamiliar","pretest","4","","","","","","","","","","","","","","","","",""
"coact-test","22","100249","0.0-22.0","p091","4","3","","","","","","107406.95466666667","","","[""stims/images/flamingo.png"",""stims/images/narwhal.png"",""stims/images/manatee.png"",""stims/images/rabbit.png"",""stims/images/koala.png"",""stims/images/tiger.png"",""stims/images/nyala.png"",""stims/images/alpaca.png""]","nyala","","unfamiliar","pretest","4","stims/audio/wheres_nyala.wav","7","stims/images/alpaca.png","0","","","","","","","","","","","","",""
"html-button-response","23","107878","0.0-23.0","p091","4","3","","","","","","7629","","0","","","","","","","","","","","","","","","","","","","","","","",""
"coact-grid","24","118218","0.0-24.0","p091","4","3","","","","","","9031","","","[""stims/images/frog.png"",""stims/images/cow.png"",""stims/images/butterfly.png"",""stims/images/horse.png"",""stims/images/cat.png"",""stims/images/wolf.png"",""stims/images/squirrel.png"",""stims/images/duck.png""]","","","","","familiar","","","","","[0,2]","[""stims/images/frog.png"",""stims/images/butterfly.png""]","[""frog"",""butterfly""]","[""stims/audio/thats_frog.wav"",""stims/audio/thats_butterfly.wav""]","right","[""stims/images/butterfly.png"",""stims/images/frog.png""]","[""stims/audio/thats_butterfly.wav"",""stims/audio/thats_frog.wav""]","[""butterfly"",""frog""]","active","0","","",""
"coact-grid-choice","25","120710","0.0-25.0","p091","4","3","","","","","","2490.9999999999854","","","[""stims/images/frog.png"",""stims/images/cow.png"",""stims/images/butterfly.png"",""stims/images/horse.png"",""stims/images/cat.png"",""stims/images/wolf.png"",""stims/images/squirrel.png"",""stims/images/duck.png""]","","","","","familiar","","","stims/images/frog.png","","","[""stims/images/frog.png"",""stims/images/butterfly.png""]","","","","[""stims/images/butterfly.png"",""stims/images/frog.png""]","[""stims/audio/thats_butterfly.wav"",""stims/audio/thats_frog.wav""]","[""butterfly"",""frog""]","passive","0","1","stims/audio/thats_frog.wav","[""stims/images/butterfly.png"",""stims/images/frog.png""]"
"coact-grid-choice-audio","26","123715","0.0-26.0","p091","4","3","","","","","","3003","","","[""stims/images/frog.png"",""stims/images/cow.png"",""stims/images/butterfly.png"",""stims/images/horse.png"",""stims/images/cat.png"",""stims/images/wolf.png"",""stims/images/squirrel.png"",""stims/images/duck.png""]","","","","","familiar","","","stims/images/frog.png","","","","","","","","","","passive","0","","stims/audio/thats_frog.wav","[""stims/images/butterfly.png"",""stims/images/frog.png""]"
"coact-grid","27","129423","0.0-27.0","p091","4","3","","","","","","4400","","","[""stims/images/alpaca.png"",""stims/images/narwhal.png"",""stims/images/nyala.png"",""stims/images/manatee.png"",""stims/images/flamingo.png"",""stims/images/rabbit.png"",""stims/images/tiger.png"",""stims/images/koala.png""]","","","","","4","","","","","[0,3]","[""stims/images/alpaca.png"",""stims/images/manatee.png""]","[""alpaca"",""manatee""]","[""stims/audio/its_alpaca.wav"",""stims/audio/its_manatee.wav""]","right","[""stims/images/manatee.png"",""stims/images/alpaca.png""]","[""stims/audio/its_manatee.wav"",""stims/audio/its_alpaca.wav""]","[""manatee"",""alpaca""]","active","0","","",""
"coact-grid-choice","28","132849","0.0-28.0","p091","4","3","","","","","","3426","","","[""stims/images/alpaca.png"",""stims/images/narwhal.png"",""stims/images/nyala.png"",""stims/images/manatee.png"",""stims/images/flamingo.png"",""stims/images/rabbit.png"",""stims/images/tiger.png"",""stims/images/koala.png""]","","","","","4","","","stims/images/alpaca.png","","","[""stims/images/alpaca.png"",""stims/images/manatee.png""]","","","","[""stims/images/manatee.png"",""stims/images/alpaca.png""]","[""stims/audio/its_manatee.wav"",""stims/audio/its_alpaca.wav""]","[""manatee"",""alpaca""]","passive","0","1","stims/audio/its_alpaca.wav","[""stims/images/manatee.png"",""stims/images/alpaca.png""]"
"coact-grid-choice-audio","29","135852","0.0-29.0","p091","4","3","","","","","","3000","","","[""stims/images/alpaca.png"",""stims/images/narwhal.png"",""stims/images/nyala.png"",""stims/images/manatee.png"",""stims/images/flamingo.png"",""stims/images/rabbit.png"",""stims/images/tiger.png"",""stims/images/koala.png""]","","","","","4","","","stims/images/alpaca.png","","","","","","","","","","passive","0","","stims/audio/its_alpaca.wav","[""stims/images/manatee.png"",""stims/images/alpaca.png""]"
"coact-grid","30","142856","0.0-30.0","p091","4","3","","","","","","5697","","","[""stims/images/flamingo.png"",""stims/images/manatee.png"",""stims/images/rabbit.png"",""stims/images/narwhal.png"",""stims/images/tiger.png"",""stims/images/nyala.png"",""stims/images/koala.png"",""stims/images/alpaca.png""]","","","","","4","","","","","[1,5]","[""stims/images/manatee.png"",""stims/images/nyala.png""]","[""manatee"",""nyala""]","[""stims/audio/thats_manatee.wav"",""stims/audio/thats_nyala.wav""]","left","[""stims/images/manatee.png"",""stims/images/nyala.png""]","[""stims/audio/thats_manatee.wav"",""stims/audio/thats_nyala.wav""]","[""manatee"",""nyala""]","active","1","","",""
"coact-grid-choice","31","146408","0.0-31.0","p091","4","3","","","","","","3551","","","[""stims/images/flamingo.png"",""stims/images/manatee.png"",""stims/images/rabbit.png"",""stims/images/narwhal.png"",""stims/images/tiger.png"",""stims/images/nyala.png"",""stims/images/koala.png"",""stims/images/alpaca.png""]","","","","","4","","","stims/images/manatee.png","","","[""stims/images/manatee.png"",""stims/images/nyala.png""]","","","","[""stims/images/manatee.png"",""stims/images/nyala.png""]","[""stims/audio/thats_manatee.wav"",""stims/audio/thats_nyala.wav""]","[""manatee"",""nyala""]","passive","1","0","stims/audio/thats_manatee.wav","[""stims/images/manatee.png"",""stims/images/nyala.png""]"
"coact-grid-choice-audio","32","149413","0.0-32.0","p091","4","3","","","","","","3000","","","[""stims/images/flamingo.png"",""stims/images/manatee.png"",""stims/images/rabbit.png"",""stims/images/narwhal.png"",""stims/images/tiger.png"",""stims/images/nyala.png"",""stims/images/koala.png"",""stims/images/alpaca.png""]","","","","","4","","","stims/images/manatee.png","","","","","","","","","","passive","1","","stims/audio/thats_manatee.wav","[""stims/images/manatee.png"",""stims/images/nyala.png""]"
"coact-grid","33","157672","0.0-33.0","p091","4","3","","","","","","6952","","","[""stims/images/manatee.png"",""stims/images/rabbit.png"",""stims/images/flamingo.png"",""stims/images/alpaca.png"",""stims/images/nyala.png"",""stims/images/tiger.png"",""stims/images/koala.png"",""stims/images/narwhal.png""]","","","","","4","","","","","[6,3]","[""stims/images/koala.png"",""stims/images/alpaca.png""]","[""koala"",""alpaca""]","[""stims/audio/its_koala.wav"",""stims/audio/its_alpaca.wav""]","right","[""stims/images/alpaca.png"",""stims/images/koala.png""]","[""stims/audio/its_alpaca.wav"",""stims/audio/its_koala.wav""]","[""alpaca"",""koala""]","active","2","","",""
"coact-grid-choice","34","163200","0.0-34.0","p091","4","3","","","","","","5528","","","[""stims/images/manatee.png"",""stims/images/rabbit.png"",""stims/images/flamingo.png"",""stims/images/alpaca.png"",""stims/images/nyala.png"",""stims/images/tiger.png"",""stims/images/koala.png"",""stims/images/narwhal.png""]","","","","","4","","","stims/images/alpaca.png","","","[""stims/images/koala.png"",""stims/images/alpaca.png""]","","","","[""stims/images/alpaca.png"",""stims/images/koala.png""]","[""stims/audio/its_alpaca.wav"",""stims/audio/its_koala.wav""]","[""alpaca"",""koala""]","passive","2","0","stims/audio/its_alpaca.wav","[""stims/images/alpaca.png"",""stims/images/koala.png""]"
"coact-grid-choice-audio","35","166204","0.0-35.0","p091","4","3","","","","","","3000","","","[""stims/images/manatee.png"",""stims/images/rabbit.png"",""stims/images/flamingo.png"",""stims/images/alpaca.png"",""stims/images/nyala.png"",""stims/images/tiger.png"",""stims/images/koala.png"",""stims/images/narwhal.png""]","","","","","4","","","stims/images/alpaca.png","","","","","","","","","","passive","2","","stims/audio/its_alpaca.wav","[""stims/images/alpaca.png"",""stims/images/koala.png""]"
"coact-grid","36","172847","0.0-36.0","p091","4","3","","","","","","5337","","","[""stims/images/rabbit.png"",""stims/images/koala.png"",""stims/images/manatee.png"",""stims/images/alpaca.png"",""stims/images/tiger.png"",""stims/images/flamingo.png"",""stims/images/nyala.png"",""stims/images/narwhal.png""]","","","","","4","","","","","[1,7]","[""stims/images/koala.png"",""stims/images/narwhal.png""]","[""koala"",""narwhal""]","[""stims/audio/thats_koala.wav"",""stims/audio/thats_narwhal.wav""]","left","[""stims/images/koala.png"",""stims/images/narwhal.png""]","[""stims/audio/thats_koala.wav"",""stims/audio/thats_narwhal.wav""]","[""koala"",""narwhal""]","active","3","","",""
"coact-grid-choice","37","177009","0.0-37.0","p091","4","3","","","","","","4160","","","[""stims/images/rabbit.png"",""stims/images/koala.png"",""stims/images/manatee.png"",""stims/images/alpaca.png"",""stims/images/tiger.png"",""stims/images/flamingo.png"",""stims/images/nyala.png"",""stims/images/narwhal.png""]","","","","","4","","","stims/images/koala.png","","","[""stims/images/koala.png"",""stims/images/narwhal.png""]","","","","[""stims/images/koala.png"",""stims/images/narwhal.png""]","[""stims/audio/thats_koala.wav"",""stims/audio/thats_narwhal.wav""]","[""koala"",""narwhal""]","passive","3","0","stims/audio/thats_koala.wav","[""stims/images/koala.png"",""stims/images/narwhal.png""]"
"coact-grid-choice-audio","38","180015","0.0-38.0","p091","4","3","","","","","","3000","","","[""stims/images/rabbit.png"",""stims/images/koala.png"",""stims/images/manatee.png"",""stims/images/alpaca.png"",""stims/images/tiger.png"",""stims/images/flamingo.png"",""stims/images/nyala.png"",""stims/images/narwhal.png""]","","","","","4","","","stims/images/koala.png","","","","","","","","","","passive","3","","stims/audio/thats_koala.wav","[""stims/images/koala.png"",""stims/images/narwhal.png""]"
"coact-grid","39","185738","0.0-39.0","p091","4","3","","","","","","4417","","","[""stims/images/alpaca.png"",""stims/images/nyala.png"",""stims/images/tiger.png"",""stims/images/manatee.png"",""stims/images/flamingo.png"",""stims/images/narwhal.png"",""stims/images/koala.png"",""stims/images/rabbit.png""]","","","","","4","","","","","[4,2]","[""stims/images/flamingo.png"",""stims/images/tiger.png""]","[""flamingo"",""tiger""]","[""stims/audio/thats_flamingo.wav"",""stims/audio/thats_tiger.wav""]","right","[""stims/images/tiger.png"",""stims/images/flamingo.png""]","[""stims/audio/thats_tiger.wav"",""stims/audio/thats_flamingo.wav""]","[""tiger"",""flamingo""]","active","4","","",""
"coact-grid-choice","40","187665","0.0-40.0","p091","4","3","","","","","","1926","","","[""stims/images/alpaca.png"",""stims/images/nyala.png"",""stims/images/tiger.png"",""stims/images/manatee.png"",""stims/images/flamingo.png"",""stims/images/narwhal.png"",""stims/images/koala.png"",""stims/images/rabbit.png""]","","","","","4","","","stims/images/flamingo.png","","","[""stims/images/flamingo.png"",""stims/images/tiger.png""]","","","","[""stims/images/tiger.png"",""stims/images/flamingo.png""]","[""stims/audio/thats_tiger.wav"",""stims/audio/thats_flamingo.wav""]","[""tiger"",""flamingo""]","passive","4","1","stims/audio/thats_flamingo.wav","[""stims/images/tiger.png"",""stims/images/flamingo.png""]"
"coact-grid-choice-audio","41","190669","0.0-41.0","p091","4","3","","","","","","3000","","","[""stims/images/alpaca.png"",""stims/images/nyala.png"",""stims/images/tiger.png"",""stims/images/manatee.png"",""stims/images/flamingo.png"",""stims/images/narwhal.png"",""stims/images/koala.png"",""stims/images/rabbit.png""]","","","","","4","","","stims/images/flamingo.png","","","","","","","","","","passive","4","","stims/audio/thats_flamingo.wav","[""stims/images/tiger.png"",""stims/images/flamingo.png""]"
"coact-grid","42","196101","0.0-42.0","p091","4","3","","","","","","4127.999999999971","","","[""stims/images/alpaca.png"",""stims/images/koala.png"",""stims/images/manatee.png"",""stims/images/rabbit.png"",""stims/images/nyala.png"",""stims/images/tiger.png"",""stims/images/flamingo.png"",""stims/images/narwhal.png""]","","","","","4","","","","","[7,4]","[""stims/images/narwhal.png"",""stims/images/nyala.png""]","[""narwhal"",""nyala""]","[""stims/audio/its_narwhal.wav"",""stims/audio/its_nyala.wav""]","left","[""stims/images/narwhal.png"",""stims/images/nyala.png""]","[""stims/audio/its_narwhal.wav"",""stims/audio/its_nyala.wav""]","[""narwhal"",""nyala""]","active","5","","",""
"coact-grid-choice","43","202423","0.0-43.0","p091","4","3","","","","","","6321","","","[""stims/images/alpaca.png"",""stims/images/koala.png"",""stims/images/manatee.png"",""stims/images/rabbit.png"",""stims/images/nyala.png"",""stims/images/tiger.png"",""stims/images/flamingo.png"",""stims/images/narwhal.png""]","","","","","4","","","stims/images/nyala.png","","","[""stims/images/narwhal.png"",""stims/images/nyala.png""]","","","","[""stims/images/narwhal.png"",""stims/images/nyala.png""]","[""stims/audio/its_narwhal.wav"",""stims/audio/its_nyala.wav""]","[""narwhal"",""nyala""]","passive","5","1","stims/audio/its_nyala.wav","[""stims/images/narwhal.png"",""stims/images/nyala.png""]"
"coact-grid-choice-audio","44","205428","0.0-44.0","p091","4","3","","","","","","3003","","","[""stims/images/alpaca.png"",""stims/images/koala.png"",""stims/images/manatee.png"",""stims/images/rabbit.png"",""stims/images/nyala.png"",""stims/images/tiger.png"",""stims/images/flamingo.png"",""stims/images/narwhal.png""]","","","","","4","","","stims/images/nyala.png","","","","","","","","","","passive","5","","stims/audio/its_nyala.wav","[""stims/images/narwhal.png"",""stims/images/nyala.png""]"
"html-button-response","45","214358","0.0-45.0","p091","4","3","","","","","","8929","","0","","","","","","","","","","","","","","","","","","","","","","",""
"coact-test-prompt","46","224963","0.0-46.0","p091","4","3","","","","","","10603.99999999997","","","[""stims/images/wolf.png"",""stims/images/butterfly.png"",""stims/images/horse.png"",""stims/images/cow.png"",""stims/images/cat.png"",""stims/images/duck.png"",""stims/images/squirrel.png"",""stims/images/frog.png""]","frog","stims/images/frog.png","familiar","practice_posttest","familiar","","","","","","","","","","","","","","","","",""
"coact-test","47","228747","0.0-47.0","p091","4","3","","","","","","235779.0666666667","","","[""stims/images/wolf.png"",""stims/images/butterfly.png"",""stims/images/horse.png"",""stims/images/cow.png"",""stims/images/cat.png"",""stims/images/duck.png"",""stims/images/squirrel.png"",""stims/images/frog.png""]","frog","","familiar","practice_posttest","familiar","stims/audio/find_frog.wav","7","stims/images/frog.png","1","","","","","","","","","","","","",""
"coact-test-prompt","48","232921","0.0-48.0","p091","4","3","","","","","","4173","","","[""stims/images/frog.png"",""stims/images/duck.png"",""stims/images/squirrel.png"",""stims/images/cow.png"",""stims/images/cat.png"",""stims/images/wolf.png"",""stims/images/horse.png"",""stims/images/butterfly.png""]","cow","stims/images/cow.png","familiar","practice_posttest","familiar","","","","","","","","","","","","","","","","",""
"coact-test","49","237882","0.0-49.0","p091","4","3","","","","","","244907.10933333336","","","[""stims/images/frog.png"",""stims/images/duck.png"",""stims/images/squirrel.png"",""stims/images/cow.png"",""stims/images/cat.png"",""stims/images/wolf.png"",""stims/images/horse.png"",""stims/images/butterfly.png""]","cow","","familiar","practice_posttest","familiar","stims/audio/wheres_cow.wav","3","stims/images/cow.png","1","","","","","","","","","","","","",""
"coact-test-prompt","50","239785","0.0-50.0","p091","4","3","","","","","","1902","","","[""stims/images/tiger.png"",""stims/images/koala.png"",""stims/images/flamingo.png"",""stims/images/narwhal.png"",""stims/images/alpaca.png"",""stims/images/rabbit.png"",""stims/images/nyala.png"",""stims/images/manatee.png""]","flamingo","stims/images/flamingo.png","somewhat familiar","posttest","4","","","","","","","","","","","","","","","","",""
"coact-test","51","243827","0.0-51.0","p091","4","3","","","","","","250845.24266666666","","","[""stims/images/tiger.png"",""stims/images/koala.png"",""stims/images/flamingo.png"",""stims/images/narwhal.png"",""stims/images/alpaca.png"",""stims/images/rabbit.png"",""stims/images/nyala.png"",""stims/images/manatee.png""]","flamingo","","somewhat familiar","posttest","4","stims/audio/wheres_flamingo.wav","2","stims/images/flamingo.png","1","","","","","","","","","","","","",""
"coact-test-prompt","52","245577","0.0-52.0","p091","4","3","","","","","","1749.000000000029","","","[""stims/images/flamingo.png"",""stims/images/tiger.png"",""stims/images/rabbit.png"",""stims/images/nyala.png"",""stims/images/manatee.png"",""stims/images/narwhal.png"",""stims/images/koala.png"",""stims/images/alpaca.png""]","rabbit","stims/images/rabbit.png","familiar","posttest","4","","","","","","","","","","","","","","","","",""
"coact-test","53","252334","0.0-53.0","p091","4","3","","","","","","259346.45066666664","","","[""stims/images/flamingo.png"",""stims/images/tiger.png"",""stims/images/rabbit.png"",""stims/images/nyala.png"",""stims/images/manatee.png"",""stims/images/narwhal.png"",""stims/images/koala.png"",""stims/images/alpaca.png""]","rabbit","","familiar","posttest","4","stims/audio/find_rabbit.wav","2","stims/images/rabbit.png","1","","","","","","","","","","","","",""
"coact-test-prompt","54","255785","0.0-54.0","p091","4","3","","","","","","3449.999999999971","","","[""stims/images/koala.png"",""stims/images/tiger.png"",""stims/images/nyala.png"",""stims/images/rabbit.png"",""stims/images/flamingo.png"",""stims/images/alpaca.png"",""stims/images/manatee.png"",""stims/images/narwhal.png""]","koala","stims/images/koala.png","somewhat familiar","posttest","4","","","","","","","","","","","","","","","","",""
"coact-test","55","260070","0.0-55.0","p091","4","3","","","","","","267072.24266666675","","","[""stims/images/koala.png"",""stims/images/tiger.png"",""stims/images/nyala.png"",""stims/images/rabbit.png"",""stims/images/flamingo.png"",""stims/images/alpaca.png"",""stims/images/manatee.png"",""stims/images/narwhal.png""]","koala","","somewhat familiar","posttest","4","stims/audio/find_koala.wav","0","stims/images/koala.png","1","","","","","","","","","","","","",""
"coact-test-prompt","56","262854","0.0-56.0","p091","4","3","","","","","","2783.000000000058","","","[""stims/images/rabbit.png"",""stims/images/flamingo.png"",""stims/images/narwhal.png"",""stims/images/koala.png"",""stims/images/manatee.png"",""stims/images/tiger.png"",""stims/images/alpaca.png"",""stims/images/nyala.png""]","tiger","stims/images/tiger.png","familiar","posttest","4","","","","","","","","","","","","","","","","",""
"coact-test","57","269751","0.0-57.0","p091","4","3","","","","","","276747.176","","","[""stims/images/rabbit.png"",""stims/images/flamingo.png"",""stims/images/narwhal.png"",""stims/images/koala.png"",""stims/images/manatee.png"",""stims/images/tiger.png"",""stims/images/alpaca.png"",""stims/images/nyala.png""]","tiger","","familiar","posttest","4","stims/audio/find_tiger.wav","5","stims/images/tiger.png","1","","","","","","","","","","","","",""
"coact-test-prompt","58","271176","0.0-58.0","p091","4","3","","","","","","1424","","","[""stims/images/narwhal.png"",""stims/images/alpaca.png"",""stims/images/flamingo.png"",""stims/images/tiger.png"",""stims/images/nyala.png"",""stims/images/manatee.png"",""stims/images/rabbit.png"",""stims/images/koala.png""]","narwhal","stims/images/narwhal.png","unfamiliar","posttest","4","","","","","","","","","","","","","","","","",""
"coact-test","59","275888","0.0-59.0","p091","4","3","","","","","","282875.85333333333","","","[""stims/images/narwhal.png"",""stims/images/alpaca.png"",""stims/images/flamingo.png"",""stims/images/tiger.png"",""stims/images/nyala.png"",""stims/images/manatee.png"",""stims/images/rabbit.png"",""stims/images/koala.png""]","narwhal","","unfamiliar","posttest","4","stims/audio/find_narwhal.wav","0","stims/images/narwhal.png","1","","","","","","","","","","","","",""
"coact-test-prompt","60","277254","0.0-60.0","p091","4","3","","","","","","1364.9999999999418","","","[""stims/images/alpaca.png"",""stims/images/rabbit.png"",""stims/images/flamingo.png"",""stims/images/nyala.png"",""stims/images/koala.png"",""stims/images/manatee.png"",""stims/images/narwhal.png"",""stims/images/tiger.png""]","manatee","stims/images/manatee.png","somewhat unfamiliar","posttest","4","","","","","","","","","","","","","","","","",""
"coact-test","61","281291","0.0-61.0","p091","4","3","","","","","","288273.776","","","[""stims/images/alpaca.png"",""stims/images/rabbit.png"",""stims/images/flamingo.png"",""stims/images/nyala.png"",""stims/images/koala.png"",""stims/images/manatee.png"",""stims/images/narwhal.png"",""stims/images/tiger.png""]","manatee","","somewhat unfamiliar","posttest","4","stims/audio/wheres_manatee.wav","5","stims/images/manatee.png","1","","","","","","","","","","","","",""
"coact-test-prompt","62","282665","0.0-62.0","p091","4","3","","","","","","1374","","","[""stims/images/koala.png"",""stims/images/narwhal.png"",""stims/images/nyala.png"",""stims/images/tiger.png"",""stims/images/manatee.png"",""stims/images/rabbit.png"",""stims/images/flamingo.png"",""stims/images/alpaca.png""]","alpaca","stims/images/alpaca.png","somewhat unfamiliar","posttest","4","","","","","","","","","","","","","","","","",""
"coact-test","63","287321","0.0-63.0","p091","4","3","","","","","","294298.3626666667","","","[""stims/images/koala.png"",""stims/images/narwhal.png"",""stims/images/nyala.png"",""stims/images/tiger.png"",""stims/images/manatee.png"",""stims/images/rabbit.png"",""stims/images/flamingo.png"",""stims/images/alpaca.png""]","alpaca","","somewhat unfamiliar","posttest","4","stims/audio/wheres_alpaca.wav","7","stims/images/alpaca.png","1","","","","","","","","","","","","",""
"coact-test-prompt","64","289019","0.0-64.0","p091","4","3","","","","","","1696.0000000000582","","","[""stims/images/narwhal.png"",""stims/images/nyala.png"",""stims/images/flamingo.png"",""stims/images/alpaca.png"",""stims/images/tiger.png"",""stims/images/manatee.png"",""stims/images/koala.png"",""stims/images/rabbit.png""]","nyala","stims/images/nyala.png","unfamiliar","posttest","4","","","","","","","","","","","","","","","","",""
"coact-test","65","292056","0.0-65.0","p091","4","3","","","","","","299027.0106666667","","","[""stims/images/narwhal.png"",""stims/images/nyala.png"",""stims/images/flamingo.png"",""stims/images/alpaca.png"",""stims/images/tiger.png"",""stims/images/manatee.png"",""stims/images/koala.png"",""stims/images/rabbit.png""]","nyala","","unfamiliar","posttest","4","stims/audio/wheres_nyala.wav","1","stims/images/nyala.png","1","","","","","","","","","","","","",""
