"trial_type","trial_index","time_elapsed","internal_node_id","subject_id","round_name","round_index","success","timeout","failed_images","failed_audio","failed_video","rt","stimulus","response","images","target","target_image","target_type","round_type","set","test_audio","choice","chosen_image","correct","choices","chosen_images","chosen_items","chosen_audio_items","first_choice_location","chosen_images_in_order","chosen_audio_in_order","chosen_items_in_order","condition","sample_num","chosen_index","chosen_audio","central_images"
"pavlovia","0","4","0.0-0.0","p070","3","2","","","","","","","","","","","","","","","","","","","","","","","","","","","","","","",""
"preload","1","185","0.0-1.0","p070","3","2","true","false","[]","[]","[]","","","","","","","","","","","","","","","","","","","","","","","","","",""
"html-button-response","2","11853","0.0-2.0","p070","3","2","","","","","","11665","","0","","","","","","","","","","","","","","","","","","","","","","",""
"coact-test-prompt","3","14075","0.0-3.0","p070","3","2","","","","","","2220","","","[""stims/images/squirrel.png"",""stims/images/cat.png"",""stims/images/wolf.png"",""stims/images/butterfly.png"",""stims/images/frog.png"",""stims/images/horse.png"",""stims/images/duck.png"",""stims/images/cow.png""]","cat","stims/images/cat.png","familiar","practice_pretest","familiar","","","","","","","","","","","","","","","","",""
"coact-test","4","17637","0.0-4.0","p070","3","2","","","","","","21737.064","","","[""stims/images/squirrel.png"",""stims/images/cat.png"",""stims/images/wolf.png"",""stims/images/butterfly.png"",""stims/images/frog.png"",""stims/images/horse.png"",""stims/images/duck.png"",""stims/images/cow.png""]","cat","","familiar","practice_pretest","familiar","stims/audio/find_cat.wav","1","stims/images/cat.png","1","","","","","","","","","","","","",""
"coact-test-prompt","5","19245","0.0-5.0","p070","3","2","","","","","","1607","","","[""stims/images/duck.png"",""stims/images/squirrel.png"",""stims/images/cat.png"",""stims/images/butterfly.png"",""stims/images/cow.png"",""stims/images/wolf.png"",""stims/images/horse.png"",""stims/images/frog.png""]","squirrel","stims/images/squirrel.png","familiar","practice_pretest","familiar","","","","","","","","","","","","","","","","",""
"coact-test","6","22572","0.0-6.0","p070","3","2","","","","","","26667.898666666668","","","[""stims/images/duck.png"",""stims/images/squirrel.png"",""stims/images/cat.png"",""stims/images/butterfly.png"",""stims/images/cow.png"",""stims/images/wolf.png"",""stims/images/horse.png"",""stims/images/frog.png""]","squirrel","","familiar","practice_pretest","familiar","stims/audio/find_squirrel.wav","1","stims/images/squirrel.png","1","","","","","","","","","","","","",""
"coact-test-prompt","7","24856","0.0-7.0","p070","3","2","","","","","","2282","","","[""stims/images/elephant.png"",""stims/images/lobster.png"",""stims/images/jaguar.png"",""stims/images/narwhal.png"",""stims/images/chameleon.png"",""stims/images/antelope.png"",""stims/images/pangolin.png"",""stims/images/pig.png""]","narwhal","stims/images/narwhal.png","unfamiliar","pretest","3","","","","","","","","","","","","","","","","",""
"coact-test","8","29710","0.0-8.0","p070","3","2","","","","","","33800.28533333333","","","[""stims/images/elephant.png"",""stims/images/lobster.png"",""stims/images/jaguar.png"",""stims/images/narwhal.png"",""stims/images/chameleon.png"",""stims/images/antelope.png"",""stims/images/pangolin.png"",""stims/images/pig.png""]","narwhal","","unfamiliar","pretest","3","stims/audio/wheres_narwhal.wav","3","stims/images/narwhal.png","1","","","","","","","","","","","","",""
"coact-test-prompt","9","30892","0.0-9.0","p070","3","2","","","","","","1181","","","[""stims/images/lobster.png"",""stims/images/pangolin.png"",""stims/images/antelope.png"",""stims/images/jaguar.png"",""stims/images/pig.png"",""stims/images/chameleon.png"",""stims/images/narwhal.png"",""stims/images/elephant.png""]","pangolin","stims/images/pangolin.png","unfamiliar","pretest","3","","","","","","","","","","","","","","","","",""
"coact-test","10","38464","0.0-10.0","p070","3","2","","","","","","42549.25066666667","","","[""stims/images/lobster.png"",""stims/images/pangolin.png"",""stims/images/antelope.png"",""stims/images/jaguar.png"",""stims/images/pig.png"",""stims/images/chameleon.png"",""stims/images/narwhal.png"",""stims/images/elephant.png""]","pangolin","","unfamiliar","pretest","3","stims/audio/find_pangolin.wav","0","stims/images/lobster.png","0","","","","","","","","","","","","",""
"coact-test-prompt","11","40290","0.0-11.0","p070","3","2","","","","","","1824","","","[""stims/images/narwhal.png"",""stims/images/pig.png"",""stims/images/pangolin.png"",""stims/images/antelope.png"",""stims/images/jaguar.png"",""stims/images/elephant.png"",""stims/images/lobster.png"",""stims/images/chameleon.png""]","antelope","stims/images/antelope.png","somewhat unfamiliar","pretest","3","","","","","","","","","","","","","","","","",""
"coact-test","12","46687","0.0-12.0","p070","3","2","","","","","","50762.85333333334","","","[""stims/images/narwhal.png"",""stims/images/pig.png"",""stims/images/pangolin.png"",""stims/images/antelope.png"",""stims/images/jaguar.png"",""stims/images/elephant.png"",""stims/images/lobster.png"",""stims/images/chameleon.png""]","antelope","","somewhat unfamiliar","pretest","3","stims/audio/wheres_antelope.wav","2","stims/images/pangolin.png","0","","","","","","","","","","","","",""
"coact-test-prompt","13","47794","0.0-13.0","p070","3","2","","","","","","1107","","","[""stims/images/lobster.png"",""stims/images/chameleon.png"",""stims/images/pangolin.png"",""stims/images/pig.png"",""stims/images/narwhal.png"",""stims/images/jaguar.png"",""stims/images/elephant.png"",""stims/images/antelope.png""]","jaguar","stims/images/jaguar.png","somewhat familiar","pretest","3","","","","","","","","","","","","","","","","",""
"coact-test","14","51322","0.0-14.0","p070","3","2","","","","","","55391.34933333333","","","[""stims/images/lobster.png"",""stims/images/chameleon.png"",""stims/images/pangolin.png"",""stims/images/pig.png"",""stims/images/narwhal.png"",""stims/images/jaguar.png"",""stims/images/elephant.png"",""stims/images/antelope.png""]","jaguar","","somewhat familiar","pretest","3","stims/audio/wheres_jaguar.wav","5","stims/images/jaguar.png","1","","","","","","","","","","","","",""
"coact-test-prompt","15","52271","0.0-15.0","p070","3","2","","","","","","947","","","[""stims/images/pangolin.png"",""stims/images/chameleon.png"",""stims/images/narwhal.png"",""stims/images/antelope.png"",""stims/images/pig.png"",""stims/images/jaguar.png"",""stims/images/elephant.png"",""stims/images/lobster.png""]","pig","stims/images/pig.png","familiar","pretest","3","","","","","","","","","","","","","","","","",""
"coact-test","16","55916","0.0-16.0","p070","3","2","","","","","","59980.872","","","[""stims/images/pangolin.png"",""stims/images/chameleon.png"",""stims/images/narwhal.png"",""stims/images/antelope.png"",""stims/images/pig.png"",""stims/images/jaguar.png"",""stims/images/elephant.png"",""stims/images/lobster.png""]","pig","","familiar","pretest","3","stims/audio/find_pig.wav","4","stims/images/pig.png","1","","","","","","","","","","","","",""
"coact-test-prompt","17","56716","0.0-17.0","p070","3","2","","","","","","799","","","[""stims/images/narwhal.png"",""stims/images/antelope.png"",""stims/images/pig.png"",""stims/images/pangolin.png"",""stims/images/chameleon.png"",""stims/images/lobster.png"",""stims/images/jaguar.png"",""stims/images/elephant.png""]","chameleon","stims/images/chameleon.png","somewhat unfamiliar","pretest","3","","","","","","","","","","","","","","","","",""
"coact-test","18","60560","0.0-18.0","p070","3","2","","","","","","64621.426666666666","","","[""stims/images/narwhal.png"",""stims/images/antelope.png"",""stims/images/pig.png"",""stims/images/pangolin.png"",""stims/images/chameleon.png"",""stims/images/lobster.png"",""stims/images/jaguar.png"",""stims/images/elephant.png""]","chameleon","","somewhat unfamiliar","pretest","3","stims/audio/wheres_chameleon.wav","4","stims/images/chameleon.png","1","","","","","","","","","","","","",""
"coact-test-prompt","19","61727","0.0-19.0","p070","3","2","","","","","","1165","","","[""stims/images/elephant.png"",""stims/images/lobster.png"",""stims/images/narwhal.png"",""stims/images/pig.png"",""stims/images/pangolin.png"",""stims/images/jaguar.png"",""stims/images/chameleon.png"",""stims/images/antelope.png""]","lobster","stims/images/lobster.png","somewhat familiar","pretest","3","","","","","","","","","","","","","","","","",""
"coact-test","20","66539","0.0-20.0","p070","3","2","","","","","","70595.41866666666","","","[""stims/images/elephant.png"",""stims/images/lobster.png"",""stims/images/narwhal.png"",""stims/images/pig.png"",""stims/images/pangolin.png"",""stims/images/jaguar.png"",""stims/images/chameleon.png"",""stims/images/antelope.png""]","lobster","","somewhat familiar","pretest","3","stims/audio/find_lobster.wav","1","stims/images/lobster.png","1","","","","","","","","","","","","",""
"coact-test-prompt","21","67906","0.0-21.0","p070","3","2","","","","","","1365","","","[""stims/images/chameleon.png"",""stims/images/elephant.png"",""stims/images/antelope.png"",""stims/images/narwhal.png"",""stims/images/pangolin.png"",""stims/images/jaguar.png"",""stims/images/pig.png"",""stims/images/lobster.png""]","elephant","stims/images/elephant.png","familiar","pretest","3","","","","","","","","","","","","","","","","",""
"coact-test","22","70925","0.0-22.0","p070","3","2","","","","","","74975.23733333334","","","[""stims/images/chameleon.png"",""stims/images/elephant.png"",""stims/images/antelope.png"",""stims/images/narwhal.png"",""stims/images/pangolin.png"",""stims/images/jaguar.png"",""stims/images/pig.png"",""stims/images/lobster.png""]","elephant","","familiar","pretest","3","stims/audio/find_elephant.wav","1","stims/images/elephant.png","1","","","","","","","","","","","","",""
"html-button-response","23","92885","0.0-23.0","p070","3","2","","","","","","21958","","0","","","","","","","","","","","","","","","","","","","","","","",""
"coact-grid","24","97247","0.0-24.0","p070","3","2","","","","","","3053","","","[""stims/images/cat.png"",""stims/images/cow.png"",""stims/images/frog.png"",""stims/images/horse.png"",""stims/images/squirrel.png"",""stims/images/duck.png"",""stims/images/wolf.png"",""stims/images/butterfly.png""]","","","","","familiar","","","","","[4,7]","[""stims/images/squirrel.png"",""stims/images/butterfly.png""]","[""squirrel"",""butterfly""]","[""stims/audio/thats_squirrel.wav"",""stims/audio/thats_butterfly.wav""]","left","[""stims/images/squirrel.png"",""stims/images/butterfly.png""]","[""stims/audio/thats_squirrel.wav"",""stims/audio/thats_butterfly.wav""]","[""squirrel"",""butterfly""]","passive","0","","",""
"coact-grid-choice","25","100472","0.0-25.0","p070","3","2","","","","","","3224","","","[""stims/images/cat.png"",""stims/images/cow.png"",""stims/images/frog.png"",""stims/images/horse.png"",""stims/images/squirrel.png"",""stims/images/duck.png"",""stims/images/wolf.png"",""stims/images/butterfly.png""]","","","","","familiar","","","stims/images/butterfly.png","","","[""stims/images/squirrel.png"",""stims/images/butterfly.png""]","","","","[""stims/images/squirrel.png"",""stims/images/butterfly.png""]","[""stims/audio/thats_squirrel.wav"",""stims/audio/thats_butterfly.wav""]","[""squirrel"",""butterfly""]","active","0","1","stims/audio/thats_butterfly.wav","[""stims/images/squirrel.png"",""stims/images/butterfly.png""]"
"coact-grid-choice-audio","26","103489","0.0-26.0","p070","3","2","","","","","","3000","","","[""stims/images/cat.png"",""stims/images/cow.png"",""stims/images/frog.png"",""stims/images/horse.png"",""stims/images/squirrel.png"",""stims/images/duck.png"",""stims/images/wolf.png"",""stims/images/butterfly.png""]","","","","","familiar","","","stims/images/butterfly.png","","","","","","","","","","active","0","","stims/audio/thats_butterfly.wav","[""stims/images/squirrel.png"",""stims/images/butterfly.png""]"
"coact-grid","27","107325","0.0-27.0","p070","3","2","","","","","","2528.9999999999854","","","[""stims/images/pig.png"",""stims/images/pangolin.png"",""stims/images/elephant.png"",""stims/images/lobster.png"",""stims/images/chameleon.png"",""stims/images/jaguar.png"",""stims/images/narwhal.png"",""stims/images/antelope.png""]","","","","","3","","","","","[6,3]","[""stims/images/narwhal.png"",""stims/images/lobster.png""]","[""narwhal"",""lobster""]","[""stims/audio/its_narwhal.wav"",""stims/audio/its_lobster.wav""]","right","[""stims/images/lobster.png"",""stims/images/narwhal.png""]","[""stims/audio/its_lobster.wav"",""stims/audio/its_narwhal.wav""]","[""lobster"",""narwhal""]","passive","0","","",""
"coact-grid-choice","28","109243","0.0-28.0","p070","3","2","","","","","","1917","","","[""stims/images/pig.png"",""stims/images/pangolin.png"",""stims/images/elephant.png"",""stims/images/lobster.png"",""stims/images/chameleon.png"",""stims/images/jaguar.png"",""stims/images/narwhal.png"",""stims/images/antelope.png""]","","","","","3","","","stims/images/narwhal.png","","","[""stims/images/narwhal.png"",""stims/images/lobster.png""]","","","","[""stims/images/lobster.png"",""stims/images/narwhal.png""]","[""stims/audio/its_lobster.wav"",""stims/audio/its_narwhal.wav""]","[""lobster"",""narwhal""]","active","0","1","stims/audio/its_narwhal.wav","[""stims/images/lobster.png"",""stims/images/narwhal.png""]"
"coact-grid-choice-audio","29","112252","0.0-29.0","p070","3","2","","","","","","3003","","","[""stims/images/pig.png"",""stims/images/pangolin.png"",""stims/images/elephant.png"",""stims/images/lobster.png"",""stims/images/chameleon.png"",""stims/images/jaguar.png"",""stims/images/narwhal.png"",""stims/images/antelope.png""]","","","","","3","","","stims/images/narwhal.png","","","","","","","","","","active","0","","stims/audio/its_narwhal.wav","[""stims/images/lobster.png"",""stims/images/narwhal.png""]"
"coact-grid","30","115630","0.0-30.0","p070","3","2","","","","","","2072","","","[""stims/images/pig.png"",""stims/images/narwhal.png"",""stims/images/lobster.png"",""stims/images/jaguar.png"",""stims/images/antelope.png"",""stims/images/pangolin.png"",""stims/images/chameleon.png"",""stims/images/elephant.png""]","","","","","3","","","","","[7,4]","[""stims/images/elephant.png"",""stims/images/antelope.png""]","[""elephant"",""antelope""]","[""stims/audio/its_elephant.wav"",""stims/audio/its_antelope.wav""]","left","[""stims/images/elephant.png"",""stims/images/antelope.png""]","[""stims/audio/its_elephant.wav"",""stims/audio/its_antelope.wav""]","[""elephant"",""antelope""]","passive","1","","",""
"coact-grid-choice","31","117499","0.0-31.0","p070","3","2","","","","","","1867.9999999999854","","","[""stims/images/pig.png"",""stims/images/narwhal.png"",""stims/images/lobster.png"",""stims/images/jaguar.png"",""stims/images/antelope.png"",""stims/images/pangolin.png"",""stims/images/chameleon.png"",""stims/images/elephant.png""]","","","","","3","","","stims/images/antelope.png","","","[""stims/images/elephant.png"",""stims/images/antelope.png""]","","","","[""stims/images/elephant.png"",""stims/images/antelope.png""]","[""stims/audio/its_elephant.wav"",""stims/audio/its_antelope.wav""]","[""elephant"",""antelope""]","active","1","1","stims/audio/its_antelope.wav","[""stims/images/elephant.png"",""stims/images/antelope.png""]"
"coact-grid-choice-audio","32","120510","0.0-32.0","p070","3","2","","","","","","3000","","","[""stims/images/pig.png"",""stims/images/narwhal.png"",""stims/images/lobster.png"",""stims/images/jaguar.png"",""stims/images/antelope.png"",""stims/images/pangolin.png"",""stims/images/chameleon.png"",""stims/images/elephant.png""]","","","","","3","","","stims/images/antelope.png","","","","","","","","","","active","1","","stims/audio/its_antelope.wav","[""stims/images/elephant.png"",""stims/images/antelope.png""]"
"coact-grid","33","124019","0.0-33.0","p070","3","2","","","","","","2203","","","[""stims/images/jaguar.png"",""stims/images/lobster.png"",""stims/images/chameleon.png"",""stims/images/pig.png"",""stims/images/pangolin.png"",""stims/images/antelope.png"",""stims/images/elephant.png"",""stims/images/narwhal.png""]","","","","","3","","","","","[0,3]","[""stims/images/jaguar.png"",""stims/images/pig.png""]","[""jaguar"",""pig""]","[""stims/audio/thats_jaguar.wav"",""stims/audio/thats_pig.wav""]","left","[""stims/images/jaguar.png"",""stims/images/pig.png""]","[""stims/audio/thats_jaguar.wav"",""stims/audio/thats_pig.wav""]","[""jaguar"",""pig""]","passive","2","","",""
"coact-grid-choice","34","126753","0.0-34.0","p070","3","2","","","","","","2734","","","[""stims/images/jaguar.png"",""stims/images/lobster.png"",""stims/images/chameleon.png"",""stims/images/pig.png"",""stims/images/pangolin.png"",""stims/images/antelope.png"",""stims/images/elephant.png"",""stims/images/narwhal.png""]","","","","","3","","","stims/images/jaguar.png","","","[""stims/images/jaguar.png"",""stims/images/pig.png""]","","","","[""stims/images/jaguar.png"",""stims/images/pig.png""]","[""stims/audio/thats_jaguar.wav"",""stims/audio/thats_pig.wav""]","[""jaguar"",""pig""]","active","2","0","stims/audio/thats_jaguar.wav","[""stims/images/jaguar.png"",""stims/images/pig.png""]"
"coact-grid-choice-audio","35","129764","0.0-35.0","p070","3","2","","","","","","3003","","","[""stims/images/jaguar.png"",""stims/images/lobster.png"",""stims/images/chameleon.png"",""stims/images/pig.png"",""stims/images/pangolin.png"",""stims/images/antelope.png"",""stims/images/elephant.png"",""stims/images/narwhal.png""]","","","","","3","","","stims/images/jaguar.png","","","","","","","","","","active","2","","stims/audio/thats_jaguar.wav","[""stims/images/jaguar.png"",""stims/images/pig.png""]"
"coact-grid","36","133072","0.0-36.0","p070","3","2","","","","","","2003","","","[""stims/images/pig.png"",""stims/images/narwhal.png"",""stims/images/jaguar.png"",""stims/images/pangolin.png"",""stims/images/chameleon.png"",""stims/images/lobster.png"",""stims/images/elephant.png"",""stims/images/antelope.png""]","","","","","3","","","","","[3,4]","[""stims/images/pangolin.png"",""stims/images/chameleon.png""]","[""pangolin"",""chameleon""]","[""stims/audio/thats_pangolin.wav"",""stims/audio/thats_chameleon.wav""]","left","[""stims/images/pangolin.png"",""stims/images/chameleon.png""]","[""stims/audio/thats_pangolin.wav"",""stims/audio/thats_chameleon.wav""]","[""pangolin"",""chameleon""]","passive","3","","",""
"coact-grid-choice","37","135658","0.0-37.0","p070","3","2","","","","","","2586","","","[""stims/images/pig.png"",""stims/images/narwhal.png"",""stims/images/jaguar.png"",""stims/images/pangolin.png"",""stims/images/chameleon.png"",""stims/images/lobster.png"",""stims/images/elephant.png"",""stims/images/antelope.png""]","","","","","3","","","stims/images/pangolin.png","","","[""stims/images/pangolin.png"",""stims/images/chameleon.png""]","","","","[""stims/images/pangolin.png"",""stims/images/chameleon.png""]","[""stims/audio/thats_pangolin.wav"",""stims/audio/thats_chameleon.wav""]","[""pangolin"",""chameleon""]","active","3","0","stims/audio/thats_pangolin.wav","[""stims/images/pangolin.png"",""stims/images/chameleon.png""]"
"coact-grid-choice-audio","38","138668","0.0-38.0","p070","3","2","","","","","","3003","","","[""stims/images/pig.png"",""stims/images/narwhal.png"",""stims/images/jaguar.png"",""stims/images/pangolin.png"",""stims/images/chameleon.png"",""stims/images/lobster.png"",""stims/images/elephant.png"",""stims/images/antelope.png""]","","","","","3","","","stims/images/pangolin.png","","","","","","","","","","active","3","","stims/audio/thats_pangolin.wav","[""stims/images/pangolin.png"",""stims/images/chameleon.png""]"
"coact-grid","39","142361","0.0-39.0","p070","3","2","","","","","","2388","","","[""stims/images/pig.png"",""stims/images/pangolin.png"",""stims/images/lobster.png"",""stims/images/antelope.png"",""stims/images/jaguar.png"",""stims/images/chameleon.png"",""stims/images/elephant.png"",""stims/images/narwhal.png""]","","","","","3","","","","","[5,2]","[""stims/images/chameleon.png"",""stims/images/lobster.png""]","[""chameleon"",""lobster""]","[""stims/audio/thats_chameleon.wav"",""stims/audio/thats_lobster.wav""]","right","[""stims/images/lobster.png"",""stims/images/chameleon.png""]","[""stims/audio/thats_lobster.wav"",""stims/audio/thats_chameleon.wav""]","[""lobster"",""chameleon""]","passive","4","","",""
"coact-grid-choice","40","145931","0.0-40.0","p070","3","2","","","","","","3570","","","[""stims/images/pig.png"",""stims/images/pangolin.png"",""stims/images/lobster.png"",""stims/images/antelope.png"",""stims/images/jaguar.png"",""stims/images/chameleon.png"",""stims/images/elephant.png"",""stims/images/narwhal.png""]","","","","","3","","","stims/images/lobster.png","","","[""stims/images/chameleon.png"",""stims/images/lobster.png""]","","","","[""stims/images/lobster.png"",""stims/images/chameleon.png""]","[""stims/audio/thats_lobster.wav"",""stims/audio/thats_chameleon.wav""]","[""lobster"",""chameleon""]","active","4","0","stims/audio/thats_lobster.wav","[""stims/images/lobster.png"",""stims/images/chameleon.png""]"
"coact-grid-choice-audio","41","148942","0.0-41.0","p070","3","2","","","","","","3000","","","[""stims/images/pig.png"",""stims/images/pangolin.png"",""stims/images/lobster.png"",""stims/images/antelope.png"",""stims/images/jaguar.png"",""stims/images/chameleon.png"",""stims/images/elephant.png"",""stims/images/narwhal.png""]","","","","","3","","","stims/images/lobster.png","","","","","","","","","","active","4","","stims/audio/thats_lobster.wav","[""stims/images/lobster.png"",""stims/images/chameleon.png""]"
"coact-grid","42","152399","0.0-42.0","p070","3","2","","","","","","2151","","","[""stims/images/pangolin.png"",""stims/images/jaguar.png"",""stims/images/elephant.png"",""stims/images/pig.png"",""stims/images/narwhal.png"",""stims/images/antelope.png"",""stims/images/lobster.png"",""stims/images/chameleon.png""]","","","","","3","","","","","[2,7]","[""stims/images/elephant.png"",""stims/images/chameleon.png""]","[""elephant"",""chameleon""]","[""stims/audio/its_elephant.wav"",""stims/audio/its_chameleon.wav""]","right","[""stims/images/chameleon.png"",""stims/images/elephant.png""]","[""stims/audio/its_chameleon.wav"",""stims/audio/its_elephant.wav""]","[""chameleon"",""elephant""]","passive","5","","",""
"coact-grid-choice","43","155136","0.0-43.0","p070","3","2","","","","","","2737","","","[""stims/images/pangolin.png"",""stims/images/jaguar.png"",""stims/images/elephant.png"",""stims/images/pig.png"",""stims/images/narwhal.png"",""stims/images/antelope.png"",""stims/images/lobster.png"",""stims/images/chameleon.png""]","","","","","3","","","stims/images/chameleon.png","","","[""stims/images/elephant.png"",""stims/images/chameleon.png""]","","","","[""stims/images/chameleon.png"",""stims/images/elephant.png""]","[""stims/audio/its_chameleon.wav"",""stims/audio/its_elephant.wav""]","[""chameleon"",""elephant""]","active","5","0","stims/audio/its_chameleon.wav","[""stims/images/chameleon.png"",""stims/images/elephant.png""]"
"coact-grid-choice-audio","44","158150","0.0-44.0","p070","3","2","","","","","","3003","","","[""stims/images/pangolin.png"",""stims/images/jaguar.png"",""stims/images/elephant.png"",""stims/images/pig.png"",""stims/images/narwhal.png"",""stims/images/antelope.png"",""stims/images/lobster.png"",""stims/images/chameleon.png""]","","","","","3","","","stims/images/chameleon.png","","","","","","","","","","active","5","","stims/audio/its_chameleon.wav","[""stims/images/chameleon.png"",""stims/images/elephant.png""]"
"html-button-response","45","175209","0.0-45.0","p070","3","2","","","","","","17058","","0","","","","","","","","","","","","","","","","","","","","","","",""
"coact-test-prompt","46","176884","0.0-46.0","p070","3","2","","","","","","1674","","","[""stims/images/cow.png"",""stims/images/cat.png"",""stims/images/duck.png"",""stims/images/squirrel.png"",""stims/images/wolf.png"",""stims/images/butterfly.png"",""stims/images/horse.png"",""stims/images/frog.png""]","cat","stims/images/cat.png","familiar","practice_posttest","familiar","","","","","","","","","","","","","","","","",""
"coact-test","47","179771","0.0-47.0","p070","3","2","","","","","","183718.25866666666","","","[""stims/images/cow.png"",""stims/images/cat.png"",""stims/images/duck.png"",""stims/images/squirrel.png"",""stims/images/wolf.png"",""stims/images/butterfly.png"",""stims/images/horse.png"",""stims/images/frog.png""]","cat","","familiar","practice_posttest","familiar","stims/audio/find_cat.wav","1","stims/images/cat.png","1","","","","","","","","","","","","",""
"coact-test-prompt","48","180695","0.0-48.0","p070","3","2","","","","","","924","","","[""stims/images/cow.png"",""stims/images/frog.png"",""stims/images/duck.png"",""stims/images/cat.png"",""stims/images/horse.png"",""stims/images/wolf.png"",""stims/images/butterfly.png"",""stims/images/squirrel.png""]","squirrel","stims/images/squirrel.png","familiar","practice_posttest","familiar","","","","","","","","","","","","","","","","",""
"coact-test","49","184340","0.0-49.0","p070","3","2","","","","","","188283.448","","","[""stims/images/cow.png"",""stims/images/frog.png"",""stims/images/duck.png"",""stims/images/cat.png"",""stims/images/horse.png"",""stims/images/wolf.png"",""stims/images/butterfly.png"",""stims/images/squirrel.png""]","squirrel","","familiar","practice_posttest","familiar","stims/audio/wheres_squirrel.wav","7","stims/images/squirrel.png","1","","","","","","","","","","","","",""
"coact-test-prompt","50","185807","0.0-50.0","p070","3","2","","","","","","1465.000000000029","","","[""stims/images/elephant.png"",""stims/images/antelope.png"",""stims/images/pig.png"",""stims/images/chameleon.png"",""stims/images/lobster.png"",""stims/images/jaguar.png"",""stims/images/pangolin.png"",""stims/images/narwhal.png""]","antelope","stims/images/antelope.png","somewhat unfamiliar","posttest","3","","","","","","","","","","","","","","","","",""
"coact-test","51","188943","0.0-51.0","p070","3","2","","","","","","192881.336","","","[""stims/images/elephant.png"",""stims/images/antelope.png"",""stims/images/pig.png"",""stims/images/chameleon.png"",""stims/images/lobster.png"",""stims/images/jaguar.png"",""stims/images/pangolin.png"",""stims/images/narwhal.png""]","antelope","","somewhat unfamiliar","posttest","3","stims/audio/find_antelope.wav","1","stims/images/antelope.png","1","","","","","","","","","","","","",""
"coact-test-prompt","52","189996","0.0-52.0","p070","3","2","","","","","","1051.999999999971","","","[""stims/images/jaguar.png"",""stims/images/elephant.png"",""stims/images/narwhal.png"",""stims/images/chameleon.png"",""stims/images/pig.png"",""stims/images/pangolin.png"",""stims/images/antelope.png"",""stims/images/lobster.png""]","elephant","stims/images/elephant.png","familiar","posttest","3","","","","","","","","","","","","","","","","",""
"coact-test","53","192978","0.0-53.0","p070","3","2","","","","","","196912.14666666667","","","[""stims/images/jaguar.png"",""stims/images/elephant.png"",""stims/images/narwhal.png"",""stims/images/chameleon.png"",""stims/images/pig.png"",""stims/images/pangolin.png"",""stims/images/antelope.png"",""stims/images/lobster.png""]","elephant","","familiar","posttest","3","stims/audio/wheres_elephant.wav","1","stims/images/elephant.png","1","","","","","","","","","","","","",""
"coact-test-prompt","54","193901","0.0-54.0","p070","3","2","","","","","","922","","","[""stims/images/chameleon.png"",""stims/images/elephant.png"",""stims/images/jaguar.png"",""stims/images/narwhal.png"",""stims/images/pangolin.png"",""stims/images/lobster.png"",""stims/images/antelope.png"",""stims/images/pig.png""]","narwhal","stims/images/narwhal.png","unfamiliar","posttest","3","","","","","","","","","","","","","","","","",""
"coact-test","55","197207","0.0-55.0","p070","3","2","","","","","","201137.2426666667","","","[""stims/images/chameleon.png"",""stims/images/elephant.png"",""stims/images/jaguar.png"",""stims/images/narwhal.png"",""stims/images/pangolin.png"",""stims/images/lobster.png"",""stims/images/antelope.png"",""stims/images/pig.png""]","narwhal","","unfamiliar","posttest","3","stims/audio/find_narwhal.wav","3","stims/images/narwhal.png","1","","","","","","","","","","","","",""
"coact-test-prompt","56","198148","0.0-56.0","p070","3","2","","","","","","940","","","[""stims/images/antelope.png"",""stims/images/lobster.png"",""stims/images/chameleon.png"",""stims/images/pig.png"",""stims/images/elephant.png"",""stims/images/jaguar.png"",""stims/images/narwhal.png"",""stims/images/pangolin.png""]","pig","stims/images/pig.png","familiar","posttest","3","","","","","","","","","","","","","","","","",""
"coact-test","57","201100","0.0-57.0","p070","3","2","","","","","","205026.99466666667","","","[""stims/images/antelope.png"",""stims/images/lobster.png"",""stims/images/chameleon.png"",""stims/images/pig.png"",""stims/images/elephant.png"",""stims/images/jaguar.png"",""stims/images/narwhal.png"",""stims/images/pangolin.png""]","pig","","familiar","posttest","3","stims/audio/wheres_pig.wav","3","stims/images/pig.png","1","","","","","","","","","","","","",""
"coact-test-prompt","58","202158","0.0-58.0","p070","3","2","","","","","","1056","","","[""stims/images/jaguar.png"",""stims/images/antelope.png"",""stims/images/elephant.png"",""stims/images/narwhal.png"",""stims/images/chameleon.png"",""stims/images/pangolin.png"",""stims/images/lobster.png"",""stims/images/pig.png""]","jaguar","stims/images/jaguar.png","somewhat familiar","posttest","3","","","","","","","","","","","","","","","","",""
"coact-test","59","205175","0.0-59.0","p070","3","2","","","","","","209097.98666666666","","","[""stims/images/jaguar.png"",""stims/images/antelope.png"",""stims/images/elephant.png"",""stims/images/narwhal.png"",""stims/images/chameleon.png"",""stims/images/pangolin.png"",""stims/images/lobster.png"",""stims/images/pig.png""]","jaguar","","somewhat familiar","posttest","3","stims/audio/wheres_jaguar.wav","0","stims/images/jaguar.png","1","","","","","","","","","","","","",""
"coact-test-prompt","60","206027","0.0-60.0","p070","3","2","","","","","","850","","","[""stims/images/pig.png"",""stims/images/chameleon.png"",""stims/images/narwhal.png"",""stims/images/jaguar.png"",""stims/images/elephant.png"",""stims/images/lobster.png"",""stims/images/antelope.png"",""stims/images/pangolin.png""]","chameleon","stims/images/chameleon.png","somewhat unfamiliar","posttest","3","","","","","","","","","","","","","","","","",""
"coact-test","61","208736","0.0-61.0","p070","3","2","","","","","","212655.11733333336","","","[""stims/images/pig.png"",""stims/images/chameleon.png"",""stims/images/narwhal.png"",""stims/images/jaguar.png"",""stims/images/elephant.png"",""stims/images/lobster.png"",""stims/images/antelope.png"",""stims/images/pangolin.png""]","chameleon","","somewhat unfamiliar","posttest","3","stims/audio/wheres_chameleon.wav","1","stims/images/chameleon.png","1","","","","","","","","","","","","",""
"coact-test-prompt","62","209612","0.0-62.0","p070","3","2","","","","","","875","","","[""stims/images/antelope.png"",""stims/images/pig.png"",""stims/images/narwhal.png"",""stims/images/lobster.png"",""stims/images/chameleon.png"",""stims/images/pangolin.png"",""stims/images/elephant.png"",""stims/images/jaguar.png""]","pangolin","stims/images/pangolin.png","unfamiliar","posttest","3","","","","","","","","","","","","","","","","",""
"coact-test","63","214756","0.0-63.0","p070","3","2","","","","","","218671.53066666666","","","[""stims/images/antelope.png"",""stims/images/pig.png"",""stims/images/narwhal.png"",""stims/images/lobster.png"",""stims/images/chameleon.png"",""stims/images/pangolin.png"",""stims/images/elephant.png"",""stims/images/jaguar.png""]","pangolin","","unfamiliar","posttest","3","stims/audio/find_pangolin.wav","5","stims/images/pangolin.png","1","","","","","","","","","","","","",""
"coact-test-prompt","64","215571","0.0-64.0","p070","3","2","","","","","","814","","","[""stims/images/jaguar.png"",""stims/images/elephant.png"",""stims/images/narwhal.png"",""stims/images/lobster.png"",""stims/images/pangolin.png"",""stims/images/antelope.png"",""stims/images/pig.png"",""stims/images/chameleon.png""]","lobster","stims/images/lobster.png","somewhat familiar","posttest","3","","","","","","","","","","","","","","","","",""
"coact-test","65","218926","0.0-65.0","p070","3","2","","","","","","222836.57333333333","","","[""stims/images/jaguar.png"",""stims/images/elephant.png"",""stims/images/narwhal.png"",""stims/images/lobster.png"",""stims/images/pangolin.png"",""stims/images/antelope.png"",""stims/images/pig.png"",""stims/images/chameleon.png""]","lobster","","somewhat familiar","posttest","3","stims/audio/find_lobster.wav","3","stims/images/lobster.png","1","","","","","","","","","","","","",""
