"trial_type","trial_index","time_elapsed","internal_node_id","subject_id","round_name","round_index","success","timeout","failed_images","failed_audio","failed_video","rt","stimulus","response","images","target","target_image","target_type","round_type","set","test_audio","choice","chosen_image","correct","choices","chosen_images","chosen_items","chosen_audio_items","first_choice_location","chosen_images_in_order","chosen_audio_in_order","chosen_items_in_order","condition","sample_num","chosen_index","chosen_audio","central_images"
"pavlovia","0","3","0.0-0.0","p099","3","2","","","","","","","","","","","","","","","","","","","","","","","","","","","","","","",""
"preload","1","311","0.0-1.0","p099","3","2","true","false","[]","[]","[]","","","","","","","","","","","","","","","","","","","","","","","","","",""
"html-button-response","2","3952","0.0-2.0","p099","3","2","","","","","","3640","","0","","","","","","","","","","","","","","","","","","","","","","",""
"coact-test-prompt","3","6128","0.0-3.0","p099","3","2","","","","","","2174","","","[""stims/images/cow.png"",""stims/images/duck.png"",""stims/images/squirrel.png"",""stims/images/wolf.png"",""stims/images/frog.png"",""stims/images/cat.png"",""stims/images/horse.png"",""stims/images/butterfly.png""]","frog","stims/images/frog.png","familiar","practice_pretest","familiar","","","","","","","","","","","","","","","","",""
"coact-test","4","14663","0.0-4.0","p099","3","2","","","","","","21188.109333333334","","","[""stims/images/cow.png"",""stims/images/duck.png"",""stims/images/squirrel.png"",""stims/images/wolf.png"",""stims/images/frog.png"",""stims/images/cat.png"",""stims/images/horse.png"",""stims/images/butterfly.png""]","frog","","familiar","practice_pretest","familiar","stims/audio/find_frog.wav","4","stims/images/frog.png","1","","","","","","","","","","","","",""
"coact-test-prompt","5","16142","0.0-5.0","p099","3","2","","","","","","1478","","","[""stims/images/horse.png"",""stims/images/butterfly.png"",""stims/images/wolf.png"",""stims/images/frog.png"",""stims/images/cow.png"",""stims/images/duck.png"",""stims/images/cat.png"",""stims/images/squirrel.png""]","duck","stims/images/duck.png","familiar","practice_pretest","familiar","","","","","","","","","","","","","","","","",""
"coact-test","6","22945","0.0-6.0","p099","3","2","","","","","","29459.096","","","[""stims/images/horse.png"",""stims/images/butterfly.png"",""stims/images/wolf.png"",""stims/images/frog.png"",""stims/images/cow.png"",""stims/images/duck.png"",""stims/images/cat.png"",""stims/images/squirrel.png""]","duck","","familiar","practice_pretest","familiar","stims/audio/find_duck.wav","5","stims/images/duck.png","1","","","","","","","","","","","","",""
"coact-test-prompt","7","24047","0.0-7.0","p099","3","2","","","","","","1100","","","[""stims/images/manatee.png"",""stims/images/bear.png"",""stims/images/echidna.png"",""stims/images/armadillo.png"",""stims/images/flamingo.png"",""stims/images/jaguar.png"",""stims/images/pig.png"",""stims/images/pangolin.png""]","bear","stims/images/bear.png","familiar","pretest","3","","","","","","","","","","","","","","","","",""
"coact-test","8","28665","0.0-8.0","p099","3","2","","","","","","35172.192","","","[""stims/images/manatee.png"",""stims/images/bear.png"",""stims/images/echidna.png"",""stims/images/armadillo.png"",""stims/images/flamingo.png"",""stims/images/jaguar.png"",""stims/images/pig.png"",""stims/images/pangolin.png""]","bear","","familiar","pretest","3","stims/audio/find_bear.wav","1","stims/images/bear.png","1","","","","","","","","","","","","",""
"coact-test-prompt","9","29334","0.0-9.0","p099","3","2","","","","","","668","","","[""stims/images/pangolin.png"",""stims/images/manatee.png"",""stims/images/flamingo.png"",""stims/images/bear.png"",""stims/images/jaguar.png"",""stims/images/echidna.png"",""stims/images/armadillo.png"",""stims/images/pig.png""]","pangolin","stims/images/pangolin.png","unfamiliar","pretest","3","","","","","","","","","","","","","","","","",""
"coact-test","10","34960","0.0-10.0","p099","3","2","","","","","","41462.904","","","[""stims/images/pangolin.png"",""stims/images/manatee.png"",""stims/images/flamingo.png"",""stims/images/bear.png"",""stims/images/jaguar.png"",""stims/images/echidna.png"",""stims/images/armadillo.png"",""stims/images/pig.png""]","pangolin","","unfamiliar","pretest","3","stims/audio/find_pangolin.wav","2","stims/images/flamingo.png","0","","","","","","","","","","","","",""
"coact-test-prompt","11","35878","0.0-11.0","p099","3","2","","","","","","918","","","[""stims/images/echidna.png"",""stims/images/flamingo.png"",""stims/images/armadillo.png"",""stims/images/manatee.png"",""stims/images/pig.png"",""stims/images/jaguar.png"",""stims/images/pangolin.png"",""stims/images/bear.png""]","manatee","stims/images/manatee.png","somewhat unfamiliar","pretest","3","","","","","","","","","","","","","","","","",""
"coact-test","12","39006","0.0-12.0","p099","3","2","","","","","","45502.362666666675","","","[""stims/images/echidna.png"",""stims/images/flamingo.png"",""stims/images/armadillo.png"",""stims/images/manatee.png"",""stims/images/pig.png"",""stims/images/jaguar.png"",""stims/images/pangolin.png"",""stims/images/bear.png""]","manatee","","somewhat unfamiliar","pretest","3","stims/audio/wheres_manatee.wav","2","stims/images/armadillo.png","0","","","","","","","","","","","","",""
"coact-test-prompt","13","40471","0.0-13.0","p099","3","2","","","","","","1462.9999999999927","","","[""stims/images/armadillo.png"",""stims/images/jaguar.png"",""stims/images/pangolin.png"",""stims/images/pig.png"",""stims/images/bear.png"",""stims/images/echidna.png"",""stims/images/flamingo.png"",""stims/images/manatee.png""]","pig","stims/images/pig.png","familiar","pretest","3","","","","","","","","","","","","","","","","",""
"coact-test","14","46009","0.0-14.0","p099","3","2","","","","","","52500.768000000004","","","[""stims/images/armadillo.png"",""stims/images/jaguar.png"",""stims/images/pangolin.png"",""stims/images/pig.png"",""stims/images/bear.png"",""stims/images/echidna.png"",""stims/images/flamingo.png"",""stims/images/manatee.png""]","pig","","familiar","pretest","3","stims/audio/wheres_pig.wav","3","stims/images/pig.png","1","","","","","","","","","","","","",""
"coact-test-prompt","15","48550","0.0-15.0","p099","3","2","","","","","","2539.9999999999927","","","[""stims/images/bear.png"",""stims/images/jaguar.png"",""stims/images/flamingo.png"",""stims/images/echidna.png"",""stims/images/armadillo.png"",""stims/images/pangolin.png"",""stims/images/pig.png"",""stims/images/manatee.png""]","flamingo","stims/images/flamingo.png","somewhat familiar","pretest","3","","","","","","","","","","","","","","","","",""
"coact-test","16","51936","0.0-16.0","p099","3","2","","","","","","58419.688","","","[""stims/images/bear.png"",""stims/images/jaguar.png"",""stims/images/flamingo.png"",""stims/images/echidna.png"",""stims/images/armadillo.png"",""stims/images/pangolin.png"",""stims/images/pig.png"",""stims/images/manatee.png""]","flamingo","","somewhat familiar","pretest","3","stims/audio/find_flamingo.wav","2","stims/images/flamingo.png","1","","","","","","","","","","","","",""
"coact-test-prompt","17","53545","0.0-17.0","p099","3","2","","","","","","1608","","","[""stims/images/manatee.png"",""stims/images/armadillo.png"",""stims/images/echidna.png"",""stims/images/jaguar.png"",""stims/images/pig.png"",""stims/images/pangolin.png"",""stims/images/bear.png"",""stims/images/flamingo.png""]","jaguar","stims/images/jaguar.png","somewhat familiar","pretest","3","","","","","","","","","","","","","","","","",""
"coact-test","18","56988","0.0-18.0","p099","3","2","","","","","","63467.696","","","[""stims/images/manatee.png"",""stims/images/armadillo.png"",""stims/images/echidna.png"",""stims/images/jaguar.png"",""stims/images/pig.png"",""stims/images/pangolin.png"",""stims/images/bear.png"",""stims/images/flamingo.png""]","jaguar","","somewhat familiar","pretest","3","stims/audio/wheres_jaguar.wav","6","stims/images/bear.png","0","","","","","","","","","","","","",""
"coact-test-prompt","19","61667","0.0-19.0","p099","3","2","","","","","","4679.000000000007","","","[""stims/images/echidna.png"",""stims/images/jaguar.png"",""stims/images/armadillo.png"",""stims/images/pig.png"",""stims/images/manatee.png"",""stims/images/flamingo.png"",""stims/images/pangolin.png"",""stims/images/bear.png""]","echidna","stims/images/echidna.png","unfamiliar","pretest","3","","","","","","","","","","","","","","","","",""
"coact-test","20","66752","0.0-20.0","p099","3","2","","","","","","73224.57333333333","","","[""stims/images/echidna.png"",""stims/images/jaguar.png"",""stims/images/armadillo.png"",""stims/images/pig.png"",""stims/images/manatee.png"",""stims/images/flamingo.png"",""stims/images/pangolin.png"",""stims/images/bear.png""]","echidna","","unfamiliar","pretest","3","stims/audio/find_echidna.wav","2","stims/images/armadillo.png","0","","","","","","","","","","","","",""
"coact-test-prompt","21","68955","0.0-21.0","p099","3","2","","","","","","2202","","","[""stims/images/jaguar.png"",""stims/images/manatee.png"",""stims/images/flamingo.png"",""stims/images/echidna.png"",""stims/images/pig.png"",""stims/images/bear.png"",""stims/images/armadillo.png"",""stims/images/pangolin.png""]","armadillo","stims/images/armadillo.png","somewhat unfamiliar","pretest","3","","","","","","","","","","","","","","","","",""
"coact-test","22","72091","0.0-22.0","p099","3","2","","","","","","78556.28266666667","","","[""stims/images/jaguar.png"",""stims/images/manatee.png"",""stims/images/flamingo.png"",""stims/images/echidna.png"",""stims/images/pig.png"",""stims/images/bear.png"",""stims/images/armadillo.png"",""stims/images/pangolin.png""]","armadillo","","somewhat unfamiliar","pretest","3","stims/audio/wheres_armadillo.wav","3","stims/images/echidna.png","0","","","","","","","","","","","","",""
"html-button-response","23","74425","0.0-23.0","p099","3","2","","","","","","2333","","0","","","","","","","","","","","","","","","","","","","","","","",""
"coact-grid","24","87632","0.0-24.0","p099","3","2","","","","","","11900.000000000015","","","[""stims/images/horse.png"",""stims/images/cat.png"",""stims/images/butterfly.png"",""stims/images/wolf.png"",""stims/images/cow.png"",""stims/images/squirrel.png"",""stims/images/duck.png"",""stims/images/frog.png""]","","","","","familiar","","","","","[2,3]","[""stims/images/butterfly.png"",""stims/images/wolf.png""]","[""butterfly"",""wolf""]","[""stims/audio/thats_butterfly.wav"",""stims/audio/thats_wolf.wav""]","right","[""stims/images/wolf.png"",""stims/images/butterfly.png""]","[""stims/audio/thats_wolf.wav"",""stims/audio/thats_butterfly.wav""]","[""wolf"",""butterfly""]","passive","0","","",""
"coact-grid-choice","25","92271","0.0-25.0","p099","3","2","","","","","","4637","","","[""stims/images/horse.png"",""stims/images/cat.png"",""stims/images/butterfly.png"",""stims/images/wolf.png"",""stims/images/cow.png"",""stims/images/squirrel.png"",""stims/images/duck.png"",""stims/images/frog.png""]","","","","","familiar","","","stims/images/butterfly.png","","","[""stims/images/butterfly.png"",""stims/images/wolf.png""]","","","","[""stims/images/wolf.png"",""stims/images/butterfly.png""]","[""stims/audio/thats_wolf.wav"",""stims/audio/thats_butterfly.wav""]","[""wolf"",""butterfly""]","active","0","1","stims/audio/thats_butterfly.wav","[""stims/images/wolf.png"",""stims/images/butterfly.png""]"
"coact-grid-choice-audio","26","95286","0.0-26.0","p099","3","2","","","","","","3000","","","[""stims/images/horse.png"",""stims/images/cat.png"",""stims/images/butterfly.png"",""stims/images/wolf.png"",""stims/images/cow.png"",""stims/images/squirrel.png"",""stims/images/duck.png"",""stims/images/frog.png""]","","","","","familiar","","","stims/images/butterfly.png","","","","","","","","","","active","0","","stims/audio/thats_butterfly.wav","[""stims/images/wolf.png"",""stims/images/butterfly.png""]"
"coact-grid","27","100039","0.0-27.0","p099","3","2","","","","","","3446","","","[""stims/images/echidna.png"",""stims/images/jaguar.png"",""stims/images/bear.png"",""stims/images/armadillo.png"",""stims/images/pangolin.png"",""stims/images/manatee.png"",""stims/images/pig.png"",""stims/images/flamingo.png""]","","","","","3","","","","","[3,6]","[""stims/images/armadillo.png"",""stims/images/pig.png""]","[""armadillo"",""pig""]","[""stims/audio/its_armadillo.wav"",""stims/audio/its_pig.wav""]","right","[""stims/images/pig.png"",""stims/images/armadillo.png""]","[""stims/audio/its_pig.wav"",""stims/audio/its_armadillo.wav""]","[""pig"",""armadillo""]","passive","0","","",""
"coact-grid-choice","28","102811","0.0-28.0","p099","3","2","","","","","","2770","","","[""stims/images/echidna.png"",""stims/images/jaguar.png"",""stims/images/bear.png"",""stims/images/armadillo.png"",""stims/images/pangolin.png"",""stims/images/manatee.png"",""stims/images/pig.png"",""stims/images/flamingo.png""]","","","","","3","","","stims/images/armadillo.png","","","[""stims/images/armadillo.png"",""stims/images/pig.png""]","","","","[""stims/images/pig.png"",""stims/images/armadillo.png""]","[""stims/audio/its_pig.wav"",""stims/audio/its_armadillo.wav""]","[""pig"",""armadillo""]","active","0","1","stims/audio/its_armadillo.wav","[""stims/images/pig.png"",""stims/images/armadillo.png""]"
"coact-grid-choice-audio","29","105820","0.0-29.0","p099","3","2","","","","","","3003","","","[""stims/images/echidna.png"",""stims/images/jaguar.png"",""stims/images/bear.png"",""stims/images/armadillo.png"",""stims/images/pangolin.png"",""stims/images/manatee.png"",""stims/images/pig.png"",""stims/images/flamingo.png""]","","","","","3","","","stims/images/armadillo.png","","","","","","","","","","active","0","","stims/audio/its_armadillo.wav","[""stims/images/pig.png"",""stims/images/armadillo.png""]"
"coact-grid","30","111236","0.0-30.0","p099","3","2","","","","","","4108.999999999985","","","[""stims/images/jaguar.png"",""stims/images/flamingo.png"",""stims/images/pig.png"",""stims/images/bear.png"",""stims/images/echidna.png"",""stims/images/manatee.png"",""stims/images/armadillo.png"",""stims/images/pangolin.png""]","","","","","3","","","","","[4,6]","[""stims/images/echidna.png"",""stims/images/armadillo.png""]","[""echidna"",""armadillo""]","[""stims/audio/its_echidna.wav"",""stims/audio/its_armadillo.wav""]","left","[""stims/images/echidna.png"",""stims/images/armadillo.png""]","[""stims/audio/its_echidna.wav"",""stims/audio/its_armadillo.wav""]","[""echidna"",""armadillo""]","passive","1","","",""
"coact-grid-choice","31","113055","0.0-31.0","p099","3","2","","","","","","1818","","","[""stims/images/jaguar.png"",""stims/images/flamingo.png"",""stims/images/pig.png"",""stims/images/bear.png"",""stims/images/echidna.png"",""stims/images/manatee.png"",""stims/images/armadillo.png"",""stims/images/pangolin.png""]","","","","","3","","","stims/images/armadillo.png","","","[""stims/images/echidna.png"",""stims/images/armadillo.png""]","","","","[""stims/images/echidna.png"",""stims/images/armadillo.png""]","[""stims/audio/its_echidna.wav"",""stims/audio/its_armadillo.wav""]","[""echidna"",""armadillo""]","active","1","1","stims/audio/its_armadillo.wav","[""stims/images/echidna.png"",""stims/images/armadillo.png""]"
"coact-grid-choice-audio","32","116064","0.0-32.0","p099","3","2","","","","","","3000","","","[""stims/images/jaguar.png"",""stims/images/flamingo.png"",""stims/images/pig.png"",""stims/images/bear.png"",""stims/images/echidna.png"",""stims/images/manatee.png"",""stims/images/armadillo.png"",""stims/images/pangolin.png""]","","","","","3","","","stims/images/armadillo.png","","","","","","","","","","active","1","","stims/audio/its_armadillo.wav","[""stims/images/echidna.png"",""stims/images/armadillo.png""]"
"coact-grid","33","121425","0.0-33.0","p099","3","2","","","","","","4054.9999999999854","","","[""stims/images/bear.png"",""stims/images/manatee.png"",""stims/images/jaguar.png"",""stims/images/armadillo.png"",""stims/images/flamingo.png"",""stims/images/pig.png"",""stims/images/echidna.png"",""stims/images/pangolin.png""]","","","","","3","","","","","[7,2]","[""stims/images/pangolin.png"",""stims/images/jaguar.png""]","[""pangolin"",""jaguar""]","[""stims/audio/its_pangolin.wav"",""stims/audio/its_jaguar.wav""]","right","[""stims/images/jaguar.png"",""stims/images/pangolin.png""]","[""stims/audio/its_jaguar.wav"",""stims/audio/its_pangolin.wav""]","[""jaguar"",""pangolin""]","passive","2","","",""
"coact-grid-choice","34","126357","0.0-34.0","p099","3","2","","","","","","4932.000000000029","","","[""stims/images/bear.png"",""stims/images/manatee.png"",""stims/images/jaguar.png"",""stims/images/armadillo.png"",""stims/images/flamingo.png"",""stims/images/pig.png"",""stims/images/echidna.png"",""stims/images/pangolin.png""]","","","","","3","","","stims/images/pangolin.png","","","[""stims/images/pangolin.png"",""stims/images/jaguar.png""]","","","","[""stims/images/jaguar.png"",""stims/images/pangolin.png""]","[""stims/audio/its_jaguar.wav"",""stims/audio/its_pangolin.wav""]","[""jaguar"",""pangolin""]","active","2","1","stims/audio/its_pangolin.wav","[""stims/images/jaguar.png"",""stims/images/pangolin.png""]"
"coact-grid-choice-audio","35","129367","0.0-35.0","p099","3","2","","","","","","3003","","","[""stims/images/bear.png"",""stims/images/manatee.png"",""stims/images/jaguar.png"",""stims/images/armadillo.png"",""stims/images/flamingo.png"",""stims/images/pig.png"",""stims/images/echidna.png"",""stims/images/pangolin.png""]","","","","","3","","","stims/images/pangolin.png","","","","","","","","","","active","2","","stims/audio/its_pangolin.wav","[""stims/images/jaguar.png"",""stims/images/pangolin.png""]"
"coact-grid","36","133832","0.0-36.0","p099","3","2","","","","","","3159","","","[""stims/images/bear.png"",""stims/images/manatee.png"",""stims/images/pangolin.png"",""stims/images/flamingo.png"",""stims/images/echidna.png"",""stims/images/armadillo.png"",""stims/images/pig.png"",""stims/images/jaguar.png""]","","","","","3","","","","","[3,7]","[""stims/images/flamingo.png"",""stims/images/jaguar.png""]","[""flamingo"",""jaguar""]","[""stims/audio/thats_flamingo.wav"",""stims/audio/thats_jaguar.wav""]","right","[""stims/images/jaguar.png"",""stims/images/flamingo.png""]","[""stims/audio/thats_jaguar.wav"",""stims/audio/thats_flamingo.wav""]","[""jaguar"",""flamingo""]","passive","3","","",""
"coact-grid-choice","37","135146","0.0-37.0","p099","3","2","","","","","","1314","","","[""stims/images/bear.png"",""stims/images/manatee.png"",""stims/images/pangolin.png"",""stims/images/flamingo.png"",""stims/images/echidna.png"",""stims/images/armadillo.png"",""stims/images/pig.png"",""stims/images/jaguar.png""]","","","","","3","","","stims/images/flamingo.png","","","[""stims/images/flamingo.png"",""stims/images/jaguar.png""]","","","","[""stims/images/jaguar.png"",""stims/images/flamingo.png""]","[""stims/audio/thats_jaguar.wav"",""stims/audio/thats_flamingo.wav""]","[""jaguar"",""flamingo""]","active","3","1","stims/audio/thats_flamingo.wav","[""stims/images/jaguar.png"",""stims/images/flamingo.png""]"
"coact-grid-choice-audio","38","138155","0.0-38.0","p099","3","2","","","","","","3003","","","[""stims/images/bear.png"",""stims/images/manatee.png"",""stims/images/pangolin.png"",""stims/images/flamingo.png"",""stims/images/echidna.png"",""stims/images/armadillo.png"",""stims/images/pig.png"",""stims/images/jaguar.png""]","","","","","3","","","stims/images/flamingo.png","","","","","","","","","","active","3","","stims/audio/thats_flamingo.wav","[""stims/images/jaguar.png"",""stims/images/flamingo.png""]"
"coact-grid","39","147650","0.0-39.0","p099","3","2","","","","","","8187","","","[""stims/images/armadillo.png"",""stims/images/pig.png"",""stims/images/jaguar.png"",""stims/images/echidna.png"",""stims/images/manatee.png"",""stims/images/flamingo.png"",""stims/images/pangolin.png"",""stims/images/bear.png""]","","","","","3","","","","","[6,4]","[""stims/images/pangolin.png"",""stims/images/manatee.png""]","[""pangolin"",""manatee""]","[""stims/audio/thats_pangolin.wav"",""stims/audio/thats_manatee.wav""]","left","[""stims/images/pangolin.png"",""stims/images/manatee.png""]","[""stims/audio/thats_pangolin.wav"",""stims/audio/thats_manatee.wav""]","[""pangolin"",""manatee""]","passive","4","","",""
"coact-grid-choice","40","150704","0.0-40.0","p099","3","2","","","","","","3052","","","[""stims/images/armadillo.png"",""stims/images/pig.png"",""stims/images/jaguar.png"",""stims/images/echidna.png"",""stims/images/manatee.png"",""stims/images/flamingo.png"",""stims/images/pangolin.png"",""stims/images/bear.png""]","","","","","3","","","stims/images/manatee.png","","","[""stims/images/pangolin.png"",""stims/images/manatee.png""]","","","","[""stims/images/pangolin.png"",""stims/images/manatee.png""]","[""stims/audio/thats_pangolin.wav"",""stims/audio/thats_manatee.wav""]","[""pangolin"",""manatee""]","active","4","1","stims/audio/thats_manatee.wav","[""stims/images/pangolin.png"",""stims/images/manatee.png""]"
"coact-grid-choice-audio","41","153714","0.0-41.0","p099","3","2","","","","","","3000","","","[""stims/images/armadillo.png"",""stims/images/pig.png"",""stims/images/jaguar.png"",""stims/images/echidna.png"",""stims/images/manatee.png"",""stims/images/flamingo.png"",""stims/images/pangolin.png"",""stims/images/bear.png""]","","","","","3","","","stims/images/manatee.png","","","","","","","","","","active","4","","stims/audio/thats_manatee.wav","[""stims/images/pangolin.png"",""stims/images/manatee.png""]"
"coact-grid","42","158478","0.0-42.0","p099","3","2","","","","","","3459","","","[""stims/images/pig.png"",""stims/images/jaguar.png"",""stims/images/flamingo.png"",""stims/images/echidna.png"",""stims/images/pangolin.png"",""stims/images/manatee.png"",""stims/images/bear.png"",""stims/images/armadillo.png""]","","","","","3","","","","","[5,3]","[""stims/images/manatee.png"",""stims/images/echidna.png""]","[""manatee"",""echidna""]","[""stims/audio/thats_manatee.wav"",""stims/audio/thats_echidna.wav""]","left","[""stims/images/manatee.png"",""stims/images/echidna.png""]","[""stims/audio/thats_manatee.wav"",""stims/audio/thats_echidna.wav""]","[""manatee"",""echidna""]","passive","5","","",""
"coact-grid-choice","43","159526","0.0-43.0","p099","3","2","","","","","","1047","","","[""stims/images/pig.png"",""stims/images/jaguar.png"",""stims/images/flamingo.png"",""stims/images/echidna.png"",""stims/images/pangolin.png"",""stims/images/manatee.png"",""stims/images/bear.png"",""stims/images/armadillo.png""]","","","","","3","","","stims/images/echidna.png","","","[""stims/images/manatee.png"",""stims/images/echidna.png""]","","","","[""stims/images/manatee.png"",""stims/images/echidna.png""]","[""stims/audio/thats_manatee.wav"",""stims/audio/thats_echidna.wav""]","[""manatee"",""echidna""]","active","5","1","stims/audio/thats_echidna.wav","[""stims/images/manatee.png"",""stims/images/echidna.png""]"
"coact-grid-choice-audio","44","162538","0.0-44.0","p099","3","2","","","","","","3000","","","[""stims/images/pig.png"",""stims/images/jaguar.png"",""stims/images/flamingo.png"",""stims/images/echidna.png"",""stims/images/pangolin.png"",""stims/images/manatee.png"",""stims/images/bear.png"",""stims/images/armadillo.png""]","","","","","3","","","stims/images/echidna.png","","","","","","","","","","active","5","","stims/audio/thats_echidna.wav","[""stims/images/manatee.png"",""stims/images/echidna.png""]"
"html-button-response","45","170438","0.0-45.0","p099","3","2","","","","","","7897.999999999971","","0","","","","","","","","","","","","","","","","","","","","","","",""
"coact-test-prompt","46","172328","0.0-46.0","p099","3","2","","","","","","1889","","","[""stims/images/horse.png"",""stims/images/duck.png"",""stims/images/cow.png"",""stims/images/cat.png"",""stims/images/squirrel.png"",""stims/images/butterfly.png"",""stims/images/wolf.png"",""stims/images/frog.png""]","frog","stims/images/frog.png","familiar","practice_posttest","familiar","","","","","","","","","","","","","","","","",""
"coact-test","47","178066","0.0-47.0","p099","3","2","","","","","","184433.90933333334","","","[""stims/images/horse.png"",""stims/images/duck.png"",""stims/images/cow.png"",""stims/images/cat.png"",""stims/images/squirrel.png"",""stims/images/butterfly.png"",""stims/images/wolf.png"",""stims/images/frog.png""]","frog","","familiar","practice_posttest","familiar","stims/audio/wheres_frog.wav","7","stims/images/frog.png","1","","","","","","","","","","","","",""
"coact-test-prompt","48","178993","0.0-48.0","p099","3","2","","","","","","926","","","[""stims/images/wolf.png"",""stims/images/cow.png"",""stims/images/butterfly.png"",""stims/images/horse.png"",""stims/images/frog.png"",""stims/images/duck.png"",""stims/images/cat.png"",""stims/images/squirrel.png""]","duck","stims/images/duck.png","familiar","practice_posttest","familiar","","","","","","","","","","","","","","","","",""
"coact-test","49","182211","0.0-49.0","p099","3","2","","","","","","188572.24533333333","","","[""stims/images/wolf.png"",""stims/images/cow.png"",""stims/images/butterfly.png"",""stims/images/horse.png"",""stims/images/frog.png"",""stims/images/duck.png"",""stims/images/cat.png"",""stims/images/squirrel.png""]","duck","","familiar","practice_posttest","familiar","stims/audio/find_duck.wav","5","stims/images/duck.png","1","","","","","","","","","","","","",""
"coact-test-prompt","50","183114","0.0-50.0","p099","3","2","","","","","","902","","","[""stims/images/flamingo.png"",""stims/images/manatee.png"",""stims/images/jaguar.png"",""stims/images/echidna.png"",""stims/images/bear.png"",""stims/images/pangolin.png"",""stims/images/armadillo.png"",""stims/images/pig.png""]","manatee","stims/images/manatee.png","somewhat unfamiliar","posttest","3","","","","","","","","","","","","","","","","",""
"coact-test","51","185964","0.0-51.0","p099","3","2","","","","","","192321.12533333333","","","[""stims/images/flamingo.png"",""stims/images/manatee.png"",""stims/images/jaguar.png"",""stims/images/echidna.png"",""stims/images/bear.png"",""stims/images/pangolin.png"",""stims/images/armadillo.png"",""stims/images/pig.png""]","manatee","","somewhat unfamiliar","posttest","3","stims/audio/wheres_manatee.wav","4","stims/images/bear.png","0","","","","","","","","","","","","",""
"coact-test-prompt","52","187141","0.0-52.0","p099","3","2","","","","","","1176","","","[""stims/images/armadillo.png"",""stims/images/echidna.png"",""stims/images/bear.png"",""stims/images/manatee.png"",""stims/images/jaguar.png"",""stims/images/pangolin.png"",""stims/images/pig.png"",""stims/images/flamingo.png""]","pig","stims/images/pig.png","familiar","posttest","3","","","","","","","","","","","","","","","","",""
"coact-test","53","195328","0.0-53.0","p099","3","2","","","","","","201682.09866666666","","","[""stims/images/armadillo.png"",""stims/images/echidna.png"",""stims/images/bear.png"",""stims/images/manatee.png"",""stims/images/jaguar.png"",""stims/images/pangolin.png"",""stims/images/pig.png"",""stims/images/flamingo.png""]","pig","","familiar","posttest","3","stims/audio/find_pig.wav","6","stims/images/pig.png","1","","","","","","","","","","","","",""
"coact-test-prompt","54","196043","0.0-54.0","p099","3","2","","","","","","713","","","[""stims/images/flamingo.png"",""stims/images/manatee.png"",""stims/images/pig.png"",""stims/images/pangolin.png"",""stims/images/bear.png"",""stims/images/armadillo.png"",""stims/images/jaguar.png"",""stims/images/echidna.png""]","jaguar","stims/images/jaguar.png","somewhat familiar","posttest","3","","","","","","","","","","","","","","","","",""
"coact-test","55","199030","0.0-55.0","p099","3","2","","","","","","205375.19466666668","","","[""stims/images/flamingo.png"",""stims/images/manatee.png"",""stims/images/pig.png"",""stims/images/pangolin.png"",""stims/images/bear.png"",""stims/images/armadillo.png"",""stims/images/jaguar.png"",""stims/images/echidna.png""]","jaguar","","somewhat familiar","posttest","3","stims/audio/wheres_jaguar.wav","6","stims/images/jaguar.png","1","","","","","","","","","","","","",""
"coact-test-prompt","56","200786","0.0-56.0","p099","3","2","","","","","","1755","","","[""stims/images/jaguar.png"",""stims/images/bear.png"",""stims/images/armadillo.png"",""stims/images/echidna.png"",""stims/images/manatee.png"",""stims/images/pig.png"",""stims/images/pangolin.png"",""stims/images/flamingo.png""]","echidna","stims/images/echidna.png","unfamiliar","posttest","3","","","","","","","","","","","","","","","","",""
"coact-test","57","203799","0.0-57.0","p099","3","2","","","","","","210139.45333333334","","","[""stims/images/jaguar.png"",""stims/images/bear.png"",""stims/images/armadillo.png"",""stims/images/echidna.png"",""stims/images/manatee.png"",""stims/images/pig.png"",""stims/images/pangolin.png"",""stims/images/flamingo.png""]","echidna","","unfamiliar","posttest","3","stims/audio/find_echidna.wav","1","stims/images/bear.png","0","","","","","","","","","","","","",""
"coact-test-prompt","58","207509","0.0-58.0","p099","3","2","","","","","","3708.999999999971","","","[""stims/images/manatee.png"",""stims/images/flamingo.png"",""stims/images/armadillo.png"",""stims/images/pig.png"",""stims/images/bear.png"",""stims/images/jaguar.png"",""stims/images/echidna.png"",""stims/images/pangolin.png""]","flamingo","stims/images/flamingo.png","somewhat familiar","posttest","3","","","","","","","","","","","","","","","","",""
"coact-test","59","210735","0.0-59.0","p099","3","2","","","","","","217069.7306666667","","","[""stims/images/manatee.png"",""stims/images/flamingo.png"",""stims/images/armadillo.png"",""stims/images/pig.png"",""stims/images/bear.png"",""stims/images/jaguar.png"",""stims/images/echidna.png"",""stims/images/pangolin.png""]","flamingo","","somewhat familiar","posttest","3","stims/audio/wheres_flamingo.wav","1","stims/images/flamingo.png","1","","","","","","","","","","","","",""
"coact-test-prompt","60","211669","0.0-60.0","p099","3","2","","","","","","933","","","[""stims/images/armadillo.png"",""stims/images/bear.png"",""stims/images/pig.png"",""stims/images/flamingo.png"",""stims/images/manatee.png"",""stims/images/echidna.png"",""stims/images/pangolin.png"",""stims/images/jaguar.png""]","pangolin","stims/images/pangolin.png","unfamiliar","posttest","3","","","","","","","","","","","","","","","","",""
"coact-test","61","215489","0.0-61.0","p099","3","2","","","","","","221820.57066666667","","","[""stims/images/armadillo.png"",""stims/images/bear.png"",""stims/images/pig.png"",""stims/images/flamingo.png"",""stims/images/manatee.png"",""stims/images/echidna.png"",""stims/images/pangolin.png"",""stims/images/jaguar.png""]","pangolin","","unfamiliar","posttest","3","stims/audio/wheres_pangolin.wav","0","stims/images/armadillo.png","0","","","","","","","","","","","","",""
"coact-test-prompt","62","216574","0.0-62.0","p099","3","2","","","","","","1084","","","[""stims/images/bear.png"",""stims/images/manatee.png"",""stims/images/flamingo.png"",""stims/images/pangolin.png"",""stims/images/pig.png"",""stims/images/jaguar.png"",""stims/images/echidna.png"",""stims/images/armadillo.png""]","armadillo","stims/images/armadillo.png","somewhat unfamiliar","posttest","3","","","","","","","","","","","","","","","","",""
"coact-test","63","218976","0.0-63.0","p099","3","2","","","","","","225302.664","","","[""stims/images/bear.png"",""stims/images/manatee.png"",""stims/images/flamingo.png"",""stims/images/pangolin.png"",""stims/images/pig.png"",""stims/images/jaguar.png"",""stims/images/echidna.png"",""stims/images/armadillo.png""]","armadillo","","somewhat unfamiliar","posttest","3","stims/audio/find_armadillo.wav","0","stims/images/bear.png","0","","","","","","","","","","","","",""
"coact-test-prompt","64","219760","0.0-64.0","p099","3","2","","","","","","782","","","[""stims/images/pig.png"",""stims/images/bear.png"",""stims/images/pangolin.png"",""stims/images/armadillo.png"",""stims/images/echidna.png"",""stims/images/flamingo.png"",""stims/images/manatee.png"",""stims/images/jaguar.png""]","bear","stims/images/bear.png","familiar","posttest","3","","","","","","","","","","","","","","","","",""
"coact-test","65","222228","0.0-65.0","p099","3","2","","","","","","228551.47733333337","","","[""stims/images/pig.png"",""stims/images/bear.png"",""stims/images/pangolin.png"",""stims/images/armadillo.png"",""stims/images/echidna.png"",""stims/images/flamingo.png"",""stims/images/manatee.png"",""stims/images/jaguar.png""]","bear","","familiar","posttest","3","stims/audio/find_bear.wav","1","stims/images/bear.png","1","","","","","","","","","","","","",""
