"trial_type","trial_index","time_elapsed","internal_node_id","subject_id","round_name","round_index","success","timeout","failed_images","failed_audio","failed_video","rt","stimulus","response","images","target","target_image","target_type","round_type","set","test_audio","choice","chosen_image","correct","choices","chosen_images","chosen_items","chosen_audio_items","first_choice_location","chosen_images_in_order","chosen_audio_in_order","chosen_items_in_order","condition","sample_num","chosen_index","chosen_audio","central_images"
"pavlovia","0","3","0.0-0.0","p102","1","0","","","","","","","","","","","","","","","","","","","","","","","","","","","","","","",""
"preload","1","4215","0.0-1.0","p102","1","0","true","false","[]","[]","[]","","","","","","","","","","","","","","","","","","","","","","","","","",""
"html-button-response","2","34864","0.0-2.0","p102","1","0","","","","","","30650.000000000015","","0","","","","","","","","","","","","","","","","","","","","","","",""
"coact-test-prompt","3","38453","0.0-3.0","p102","1","0","","","","","","3586.9999999999854","","","[""stims/images/cow.png"",""stims/images/butterfly.png"",""stims/images/duck.png"",""stims/images/frog.png"",""stims/images/horse.png"",""stims/images/cat.png"",""stims/images/squirrel.png"",""stims/images/wolf.png""]","duck","stims/images/duck.png","familiar","practice_pretest","familiar","","","","","","","","","","","","","","","","",""
"coact-test","4","46481","0.0-4.0","p102","1","0","","","","","","116398.85866666667","","","[""stims/images/cow.png"",""stims/images/butterfly.png"",""stims/images/duck.png"",""stims/images/frog.png"",""stims/images/horse.png"",""stims/images/cat.png"",""stims/images/squirrel.png"",""stims/images/wolf.png""]","duck","","familiar","practice_pretest","familiar","stims/audio/find_duck.wav","2","stims/images/duck.png","1","","","","","","","","","","","","",""
"coact-test-prompt","5","48982","0.0-5.0","p102","1","0","","","","","","2499","","","[""stims/images/wolf.png"",""stims/images/frog.png"",""stims/images/squirrel.png"",""stims/images/duck.png"",""stims/images/horse.png"",""stims/images/butterfly.png"",""stims/images/cow.png"",""stims/images/cat.png""]","butterfly","stims/images/butterfly.png","familiar","practice_pretest","familiar","","","","","","","","","","","","","","","","",""
"coact-test","6","52202","0.0-6.0","p102","1","0","","","","","","122110.33066666666","","","[""stims/images/wolf.png"",""stims/images/frog.png"",""stims/images/squirrel.png"",""stims/images/duck.png"",""stims/images/horse.png"",""stims/images/butterfly.png"",""stims/images/cow.png"",""stims/images/cat.png""]","butterfly","","familiar","practice_pretest","familiar","stims/audio/find_butterfly.wav","5","stims/images/butterfly.png","1","","","","","","","","","","","","",""
"coact-test-prompt","7","54916","0.0-7.0","p102","1","0","","","","","","2713.0000000000146","","","[""stims/images/hippopotamus.png"",""stims/images/turtle.png"",""stims/images/nyala.png"",""stims/images/raccoon.png"",""stims/images/sloth.png"",""stims/images/bear.png"",""stims/images/echidna.png"",""stims/images/manatee.png""]","raccoon","stims/images/raccoon.png","somewhat familiar","pretest","1","","","","","","","","","","","","","","","","",""
"coact-test","8","60739","0.0-8.0","p102","1","0","","","","","","130641.39733333333","","","[""stims/images/hippopotamus.png"",""stims/images/turtle.png"",""stims/images/nyala.png"",""stims/images/raccoon.png"",""stims/images/sloth.png"",""stims/images/bear.png"",""stims/images/echidna.png"",""stims/images/manatee.png""]","raccoon","","somewhat familiar","pretest","1","stims/audio/wheres_raccoon.wav","3","stims/images/raccoon.png","1","","","","","","","","","","","","",""
"coact-test-prompt","9","64395","0.0-9.0","p102","1","0","","","","","","3655","","","[""stims/images/echidna.png"",""stims/images/hippopotamus.png"",""stims/images/bear.png"",""stims/images/turtle.png"",""stims/images/nyala.png"",""stims/images/manatee.png"",""stims/images/raccoon.png"",""stims/images/sloth.png""]","manatee","stims/images/manatee.png","somewhat unfamiliar","pretest","1","","","","","","","","","","","","","","","","",""
"coact-test","10","71742","0.0-10.0","p102","1","0","","","","","","141634.92","","","[""stims/images/echidna.png"",""stims/images/hippopotamus.png"",""stims/images/bear.png"",""stims/images/turtle.png"",""stims/images/nyala.png"",""stims/images/manatee.png"",""stims/images/raccoon.png"",""stims/images/sloth.png""]","manatee","","somewhat unfamiliar","pretest","1","stims/audio/wheres_manatee.wav","5","stims/images/manatee.png","1","","","","","","","","","","","","",""
"coact-test-prompt","11","75095","0.0-11.0","p102","1","0","","","","","","3352","","","[""stims/images/nyala.png"",""stims/images/turtle.png"",""stims/images/echidna.png"",""stims/images/raccoon.png"",""stims/images/sloth.png"",""stims/images/hippopotamus.png"",""stims/images/manatee.png"",""stims/images/bear.png""]","turtle","stims/images/turtle.png","familiar","pretest","1","","","","","","","","","","","","","","","","",""
"coact-test","12","78922","0.0-12.0","p102","1","0","","","","","","148805.21866666665","","","[""stims/images/nyala.png"",""stims/images/turtle.png"",""stims/images/echidna.png"",""stims/images/raccoon.png"",""stims/images/sloth.png"",""stims/images/hippopotamus.png"",""stims/images/manatee.png"",""stims/images/bear.png""]","turtle","","familiar","pretest","1","stims/audio/wheres_turtle.wav","1","stims/images/turtle.png","1","","","","","","","","","","","","",""
"coact-test-prompt","13","83274","0.0-13.0","p102","1","0","","","","","","4352","","","[""stims/images/nyala.png"",""stims/images/echidna.png"",""stims/images/raccoon.png"",""stims/images/manatee.png"",""stims/images/turtle.png"",""stims/images/hippopotamus.png"",""stims/images/bear.png"",""stims/images/sloth.png""]","echidna","stims/images/echidna.png","unfamiliar","pretest","1","","","","","","","","","","","","","","","","",""
"coact-test","14","99217","0.0-14.0","p102","1","0","","","","","","169093.04000000004","","","[""stims/images/nyala.png"",""stims/images/echidna.png"",""stims/images/raccoon.png"",""stims/images/manatee.png"",""stims/images/turtle.png"",""stims/images/hippopotamus.png"",""stims/images/bear.png"",""stims/images/sloth.png""]","echidna","","unfamiliar","pretest","1","stims/audio/find_echidna.wav","0","stims/images/nyala.png","0","","","","","","","","","","","","",""
"coact-test-prompt","15","101420","0.0-15.0","p102","1","0","","","","","","2202","","","[""stims/images/hippopotamus.png"",""stims/images/echidna.png"",""stims/images/manatee.png"",""stims/images/sloth.png"",""stims/images/bear.png"",""stims/images/raccoon.png"",""stims/images/nyala.png"",""stims/images/turtle.png""]","bear","stims/images/bear.png","familiar","pretest","1","","","","","","","","","","","","","","","","",""
"coact-test","16","105296","0.0-16.0","p102","1","0","","","","","","175153.89333333334","","","[""stims/images/hippopotamus.png"",""stims/images/echidna.png"",""stims/images/manatee.png"",""stims/images/sloth.png"",""stims/images/bear.png"",""stims/images/raccoon.png"",""stims/images/nyala.png"",""stims/images/turtle.png""]","bear","","familiar","pretest","1","stims/audio/find_bear.wav","4","stims/images/bear.png","1","","","","","","","","","","","","",""
"coact-test-prompt","17","109147","0.0-17.0","p102","1","0","","","","","","3850","","","[""stims/images/turtle.png"",""stims/images/manatee.png"",""stims/images/echidna.png"",""stims/images/bear.png"",""stims/images/sloth.png"",""stims/images/raccoon.png"",""stims/images/nyala.png"",""stims/images/hippopotamus.png""]","nyala","stims/images/nyala.png","unfamiliar","pretest","1","","","","","","","","","","","","","","","","",""
"coact-test","18","114902","0.0-18.0","p102","1","0","","","","","","184754.168","","","[""stims/images/turtle.png"",""stims/images/manatee.png"",""stims/images/echidna.png"",""stims/images/bear.png"",""stims/images/sloth.png"",""stims/images/raccoon.png"",""stims/images/nyala.png"",""stims/images/hippopotamus.png""]","nyala","","unfamiliar","pretest","1","stims/audio/find_nyala.wav","4","stims/images/sloth.png","0","","","","","","","","","","","","",""
"coact-test-prompt","19","118820","0.0-19.0","p102","1","0","","","","","","3916","","","[""stims/images/manatee.png"",""stims/images/turtle.png"",""stims/images/sloth.png"",""stims/images/nyala.png"",""stims/images/raccoon.png"",""stims/images/hippopotamus.png"",""stims/images/bear.png"",""stims/images/echidna.png""]","hippopotamus","stims/images/hippopotamus.png","somewhat familiar","pretest","1","","","","","","","","","","","","","","","","",""
"coact-test","20","122488","0.0-20.0","p102","1","0","","","","","","192330.496","","","[""stims/images/manatee.png"",""stims/images/turtle.png"",""stims/images/sloth.png"",""stims/images/nyala.png"",""stims/images/raccoon.png"",""stims/images/hippopotamus.png"",""stims/images/bear.png"",""stims/images/echidna.png""]","hippopotamus","","somewhat familiar","pretest","1","stims/audio/wheres_hippopotamus.wav","5","stims/images/hippopotamus.png","1","","","","","","","","","","","","",""
"coact-test-prompt","21","126665","0.0-21.0","p102","1","0","","","","","","4176","","","[""stims/images/turtle.png"",""stims/images/manatee.png"",""stims/images/nyala.png"",""stims/images/bear.png"",""stims/images/hippopotamus.png"",""stims/images/raccoon.png"",""stims/images/echidna.png"",""stims/images/sloth.png""]","sloth","stims/images/sloth.png","somewhat unfamiliar","pretest","1","","","","","","","","","","","","","","","","",""
"coact-test","22","132170","0.0-22.0","p102","1","0","","","","","","202004.648","","","[""stims/images/turtle.png"",""stims/images/manatee.png"",""stims/images/nyala.png"",""stims/images/bear.png"",""stims/images/hippopotamus.png"",""stims/images/raccoon.png"",""stims/images/echidna.png"",""stims/images/sloth.png""]","sloth","","somewhat unfamiliar","pretest","1","stims/audio/find_sloth.wav","7","stims/images/sloth.png","1","","","","","","","","","","","","",""
"html-button-response","23","190003","0.0-23.0","p102","1","0","","","","","","57833.00000000003","","0","","","","","","","","","","","","","","","","","","","","","","",""
"coact-grid","24","195974","0.0-24.0","p102","1","0","","","","","","4661.000000000029","","","[""stims/images/frog.png"",""stims/images/cow.png"",""stims/images/duck.png"",""stims/images/squirrel.png"",""stims/images/butterfly.png"",""stims/images/wolf.png"",""stims/images/cat.png"",""stims/images/horse.png""]","","","","","familiar","","","","","[1,5]","[""stims/images/cow.png"",""stims/images/wolf.png""]","[""cow"",""wolf""]","[""stims/audio/thats_cow.wav"",""stims/audio/thats_wolf.wav""]","right","[""stims/images/wolf.png"",""stims/images/cow.png""]","[""stims/audio/thats_wolf.wav"",""stims/audio/thats_cow.wav""]","[""wolf"",""cow""]","passive","0","","",""
"coact-grid-choice","25","197990","0.0-25.0","p102","1","0","","","","","","2014.9999999999418","","","[""stims/images/frog.png"",""stims/images/cow.png"",""stims/images/duck.png"",""stims/images/squirrel.png"",""stims/images/butterfly.png"",""stims/images/wolf.png"",""stims/images/cat.png"",""stims/images/horse.png""]","","","","","familiar","","","stims/images/wolf.png","","","[""stims/images/cow.png"",""stims/images/wolf.png""]","","","","[""stims/images/wolf.png"",""stims/images/cow.png""]","[""stims/audio/thats_wolf.wav"",""stims/audio/thats_cow.wav""]","[""wolf"",""cow""]","passive","0","0","stims/audio/thats_wolf.wav","[""stims/images/wolf.png"",""stims/images/cow.png""]"
"coact-grid-choice-audio","26","201002","0.0-26.0","p102","1","0","","","","","","3000","","","[""stims/images/frog.png"",""stims/images/cow.png"",""stims/images/duck.png"",""stims/images/squirrel.png"",""stims/images/butterfly.png"",""stims/images/wolf.png"",""stims/images/cat.png"",""stims/images/horse.png""]","","","","","familiar","","","stims/images/wolf.png","","","","","","","","","","passive","0","","stims/audio/thats_wolf.wav","[""stims/images/wolf.png"",""stims/images/cow.png""]"
"coact-grid","27","205744","0.0-27.0","p102","1","0","","","","","","3436","","","[""stims/images/nyala.png"",""stims/images/raccoon.png"",""stims/images/sloth.png"",""stims/images/manatee.png"",""stims/images/echidna.png"",""stims/images/hippopotamus.png"",""stims/images/turtle.png"",""stims/images/bear.png""]","","","","","1","","","","","[6,7]","[""stims/images/turtle.png"",""stims/images/bear.png""]","[""turtle"",""bear""]","[""stims/audio/thats_turtle.wav"",""stims/audio/thats_bear.wav""]","right","[""stims/images/bear.png"",""stims/images/turtle.png""]","[""stims/audio/thats_bear.wav"",""stims/audio/thats_turtle.wav""]","[""bear"",""turtle""]","passive","0","","",""
"coact-grid-choice","28","207862","0.0-28.0","p102","1","0","","","","","","2118","","","[""stims/images/nyala.png"",""stims/images/raccoon.png"",""stims/images/sloth.png"",""stims/images/manatee.png"",""stims/images/echidna.png"",""stims/images/hippopotamus.png"",""stims/images/turtle.png"",""stims/images/bear.png""]","","","","","1","","","stims/images/bear.png","","","[""stims/images/turtle.png"",""stims/images/bear.png""]","","","","[""stims/images/bear.png"",""stims/images/turtle.png""]","[""stims/audio/thats_bear.wav"",""stims/audio/thats_turtle.wav""]","[""bear"",""turtle""]","passive","0","0","stims/audio/thats_bear.wav","[""stims/images/bear.png"",""stims/images/turtle.png""]"
"coact-grid-choice-audio","29","210871","0.0-29.0","p102","1","0","","","","","","3000","","","[""stims/images/nyala.png"",""stims/images/raccoon.png"",""stims/images/sloth.png"",""stims/images/manatee.png"",""stims/images/echidna.png"",""stims/images/hippopotamus.png"",""stims/images/turtle.png"",""stims/images/bear.png""]","","","","","1","","","stims/images/bear.png","","","","","","","","","","passive","0","","stims/audio/thats_bear.wav","[""stims/images/bear.png"",""stims/images/turtle.png""]"
"coact-grid","30","215134","0.0-30.0","p102","1","0","","","","","","2955","","","[""stims/images/hippopotamus.png"",""stims/images/bear.png"",""stims/images/raccoon.png"",""stims/images/turtle.png"",""stims/images/nyala.png"",""stims/images/manatee.png"",""stims/images/sloth.png"",""stims/images/echidna.png""]","","","","","1","","","","","[6,2]","[""stims/images/sloth.png"",""stims/images/raccoon.png""]","[""sloth"",""raccoon""]","[""stims/audio/its_sloth.wav"",""stims/audio/its_raccoon.wav""]","right","[""stims/images/raccoon.png"",""stims/images/sloth.png""]","[""stims/audio/its_raccoon.wav"",""stims/audio/its_sloth.wav""]","[""raccoon"",""sloth""]","passive","1","","",""
"coact-grid-choice","31","218218","0.0-31.0","p102","1","0","","","","","","3082","","","[""stims/images/hippopotamus.png"",""stims/images/bear.png"",""stims/images/raccoon.png"",""stims/images/turtle.png"",""stims/images/nyala.png"",""stims/images/manatee.png"",""stims/images/sloth.png"",""stims/images/echidna.png""]","","","","","1","","","stims/images/sloth.png","","","[""stims/images/sloth.png"",""stims/images/raccoon.png""]","","","","[""stims/images/raccoon.png"",""stims/images/sloth.png""]","[""stims/audio/its_raccoon.wav"",""stims/audio/its_sloth.wav""]","[""raccoon"",""sloth""]","passive","1","1","stims/audio/its_sloth.wav","[""stims/images/raccoon.png"",""stims/images/sloth.png""]"
"coact-grid-choice-audio","32","221228","0.0-32.0","p102","1","0","","","","","","3000","","","[""stims/images/hippopotamus.png"",""stims/images/bear.png"",""stims/images/raccoon.png"",""stims/images/turtle.png"",""stims/images/nyala.png"",""stims/images/manatee.png"",""stims/images/sloth.png"",""stims/images/echidna.png""]","","","","","1","","","stims/images/sloth.png","","","","","","","","","","passive","1","","stims/audio/its_sloth.wav","[""stims/images/raccoon.png"",""stims/images/sloth.png""]"
"coact-grid","33","225206","0.0-33.0","p102","1","0","","","","","","2673","","","[""stims/images/echidna.png"",""stims/images/raccoon.png"",""stims/images/nyala.png"",""stims/images/bear.png"",""stims/images/hippopotamus.png"",""stims/images/manatee.png"",""stims/images/sloth.png"",""stims/images/turtle.png""]","","","","","1","","","","","[5,1]","[""stims/images/manatee.png"",""stims/images/raccoon.png""]","[""manatee"",""raccoon""]","[""stims/audio/thats_manatee.wav"",""stims/audio/thats_raccoon.wav""]","left","[""stims/images/manatee.png"",""stims/images/raccoon.png""]","[""stims/audio/thats_manatee.wav"",""stims/audio/thats_raccoon.wav""]","[""manatee"",""raccoon""]","passive","2","","",""
"coact-grid-choice","34","227072","0.0-34.0","p102","1","0","","","","","","1865","","","[""stims/images/echidna.png"",""stims/images/raccoon.png"",""stims/images/nyala.png"",""stims/images/bear.png"",""stims/images/hippopotamus.png"",""stims/images/manatee.png"",""stims/images/sloth.png"",""stims/images/turtle.png""]","","","","","1","","","stims/images/raccoon.png","","","[""stims/images/manatee.png"",""stims/images/raccoon.png""]","","","","[""stims/images/manatee.png"",""stims/images/raccoon.png""]","[""stims/audio/thats_manatee.wav"",""stims/audio/thats_raccoon.wav""]","[""manatee"",""raccoon""]","passive","2","1","stims/audio/thats_raccoon.wav","[""stims/images/manatee.png"",""stims/images/raccoon.png""]"
"coact-grid-choice-audio","35","230081","0.0-35.0","p102","1","0","","","","","","3003","","","[""stims/images/echidna.png"",""stims/images/raccoon.png"",""stims/images/nyala.png"",""stims/images/bear.png"",""stims/images/hippopotamus.png"",""stims/images/manatee.png"",""stims/images/sloth.png"",""stims/images/turtle.png""]","","","","","1","","","stims/images/raccoon.png","","","","","","","","","","passive","2","","stims/audio/thats_raccoon.wav","[""stims/images/manatee.png"",""stims/images/raccoon.png""]"
"coact-grid","36","233510","0.0-36.0","p102","1","0","","","","","","2121","","","[""stims/images/bear.png"",""stims/images/hippopotamus.png"",""stims/images/echidna.png"",""stims/images/manatee.png"",""stims/images/raccoon.png"",""stims/images/sloth.png"",""stims/images/turtle.png"",""stims/images/nyala.png""]","","","","","1","","","","","[5,4]","[""stims/images/sloth.png"",""stims/images/raccoon.png""]","[""sloth"",""raccoon""]","[""stims/audio/thats_sloth.wav"",""stims/audio/thats_raccoon.wav""]","left","[""stims/images/sloth.png"",""stims/images/raccoon.png""]","[""stims/audio/thats_sloth.wav"",""stims/audio/thats_raccoon.wav""]","[""sloth"",""raccoon""]","passive","3","","",""
"coact-grid-choice","37","236912","0.0-37.0","p102","1","0","","","","","","3400","","","[""stims/images/bear.png"",""stims/images/hippopotamus.png"",""stims/images/echidna.png"",""stims/images/manatee.png"",""stims/images/raccoon.png"",""stims/images/sloth.png"",""stims/images/turtle.png"",""stims/images/nyala.png""]","","","","","1","","","stims/images/raccoon.png","","","[""stims/images/sloth.png"",""stims/images/raccoon.png""]","","","","[""stims/images/sloth.png"",""stims/images/raccoon.png""]","[""stims/audio/thats_sloth.wav"",""stims/audio/thats_raccoon.wav""]","[""sloth"",""raccoon""]","passive","3","1","stims/audio/thats_raccoon.wav","[""stims/images/sloth.png"",""stims/images/raccoon.png""]"
"coact-grid-choice-audio","38","239921","0.0-38.0","p102","1","0","","","","","","3003","","","[""stims/images/bear.png"",""stims/images/hippopotamus.png"",""stims/images/echidna.png"",""stims/images/manatee.png"",""stims/images/raccoon.png"",""stims/images/sloth.png"",""stims/images/turtle.png"",""stims/images/nyala.png""]","","","","","1","","","stims/images/raccoon.png","","","","","","","","","","passive","3","","stims/audio/thats_raccoon.wav","[""stims/images/sloth.png"",""stims/images/raccoon.png""]"
"coact-grid","39","243616","0.0-39.0","p102","1","0","","","","","","2386","","","[""stims/images/sloth.png"",""stims/images/bear.png"",""stims/images/hippopotamus.png"",""stims/images/echidna.png"",""stims/images/turtle.png"",""stims/images/raccoon.png"",""stims/images/manatee.png"",""stims/images/nyala.png""]","","","","","1","","","","","[4,2]","[""stims/images/turtle.png"",""stims/images/hippopotamus.png""]","[""turtle"",""hippopotamus""]","[""stims/audio/its_turtle.wav"",""stims/audio/its_hippopotamus.wav""]","right","[""stims/images/hippopotamus.png"",""stims/images/turtle.png""]","[""stims/audio/its_hippopotamus.wav"",""stims/audio/its_turtle.wav""]","[""hippopotamus"",""turtle""]","passive","4","","",""
"coact-grid-choice","40","246317","0.0-40.0","p102","1","0","","","","","","2699","","","[""stims/images/sloth.png"",""stims/images/bear.png"",""stims/images/hippopotamus.png"",""stims/images/echidna.png"",""stims/images/turtle.png"",""stims/images/raccoon.png"",""stims/images/manatee.png"",""stims/images/nyala.png""]","","","","","1","","","stims/images/turtle.png","","","[""stims/images/turtle.png"",""stims/images/hippopotamus.png""]","","","","[""stims/images/hippopotamus.png"",""stims/images/turtle.png""]","[""stims/audio/its_hippopotamus.wav"",""stims/audio/its_turtle.wav""]","[""hippopotamus"",""turtle""]","passive","4","1","stims/audio/its_turtle.wav","[""stims/images/hippopotamus.png"",""stims/images/turtle.png""]"
"coact-grid-choice-audio","41","249328","0.0-41.0","p102","1","0","","","","","","3000","","","[""stims/images/sloth.png"",""stims/images/bear.png"",""stims/images/hippopotamus.png"",""stims/images/echidna.png"",""stims/images/turtle.png"",""stims/images/raccoon.png"",""stims/images/manatee.png"",""stims/images/nyala.png""]","","","","","1","","","stims/images/turtle.png","","","","","","","","","","passive","4","","stims/audio/its_turtle.wav","[""stims/images/hippopotamus.png"",""stims/images/turtle.png""]"
"coact-grid","42","252760","0.0-42.0","p102","1","0","","","","","","2125.999999999942","","","[""stims/images/hippopotamus.png"",""stims/images/nyala.png"",""stims/images/echidna.png"",""stims/images/sloth.png"",""stims/images/raccoon.png"",""stims/images/manatee.png"",""stims/images/bear.png"",""stims/images/turtle.png""]","","","","","1","","","","","[6,0]","[""stims/images/bear.png"",""stims/images/hippopotamus.png""]","[""bear"",""hippopotamus""]","[""stims/audio/its_bear.wav"",""stims/audio/its_hippopotamus.wav""]","left","[""stims/images/bear.png"",""stims/images/hippopotamus.png""]","[""stims/audio/its_bear.wav"",""stims/audio/its_hippopotamus.wav""]","[""bear"",""hippopotamus""]","passive","5","","",""
"coact-grid-choice","43","255022","0.0-43.0","p102","1","0","","","","","","2261","","","[""stims/images/hippopotamus.png"",""stims/images/nyala.png"",""stims/images/echidna.png"",""stims/images/sloth.png"",""stims/images/raccoon.png"",""stims/images/manatee.png"",""stims/images/bear.png"",""stims/images/turtle.png""]","","","","","1","","","stims/images/bear.png","","","[""stims/images/bear.png"",""stims/images/hippopotamus.png""]","","","","[""stims/images/bear.png"",""stims/images/hippopotamus.png""]","[""stims/audio/its_bear.wav"",""stims/audio/its_hippopotamus.wav""]","[""bear"",""hippopotamus""]","passive","5","0","stims/audio/its_bear.wav","[""stims/images/bear.png"",""stims/images/hippopotamus.png""]"
"coact-grid-choice-audio","44","258032","0.0-44.0","p102","1","0","","","","","","3003","","","[""stims/images/hippopotamus.png"",""stims/images/nyala.png"",""stims/images/echidna.png"",""stims/images/sloth.png"",""stims/images/raccoon.png"",""stims/images/manatee.png"",""stims/images/bear.png"",""stims/images/turtle.png""]","","","","","1","","","stims/images/bear.png","","","","","","","","","","passive","5","","stims/audio/its_bear.wav","[""stims/images/bear.png"",""stims/images/hippopotamus.png""]"
"html-button-response","45","277511","0.0-45.0","p102","1","0","","","","","","19475","","0","","","","","","","","","","","","","","","","","","","","","","",""
"coact-test-prompt","46","280737","0.0-46.0","p102","1","0","","","","","","3224","","","[""stims/images/wolf.png"",""stims/images/squirrel.png"",""stims/images/duck.png"",""stims/images/horse.png"",""stims/images/cat.png"",""stims/images/frog.png"",""stims/images/cow.png"",""stims/images/butterfly.png""]","duck","stims/images/duck.png","familiar","practice_posttest","familiar","","","","","","","","","","","","","","","","",""
"coact-test","47","284648","0.0-47.0","p102","1","0","","","","","","354337.576","","","[""stims/images/wolf.png"",""stims/images/squirrel.png"",""stims/images/duck.png"",""stims/images/horse.png"",""stims/images/cat.png"",""stims/images/frog.png"",""stims/images/cow.png"",""stims/images/butterfly.png""]","duck","","familiar","practice_posttest","familiar","stims/audio/find_duck.wav","2","stims/images/duck.png","1","","","","","","","","","","","","",""
"coact-test-prompt","48","286800","0.0-48.0","p102","1","0","","","","","","2149","","","[""stims/images/horse.png"",""stims/images/butterfly.png"",""stims/images/frog.png"",""stims/images/duck.png"",""stims/images/cow.png"",""stims/images/wolf.png"",""stims/images/cat.png"",""stims/images/squirrel.png""]","butterfly","stims/images/butterfly.png","familiar","practice_posttest","familiar","","","","","","","","","","","","","","","","",""
"coact-test","49","290010","0.0-49.0","p102","1","0","","","","","","359693.512","","","[""stims/images/horse.png"",""stims/images/butterfly.png"",""stims/images/frog.png"",""stims/images/duck.png"",""stims/images/cow.png"",""stims/images/wolf.png"",""stims/images/cat.png"",""stims/images/squirrel.png""]","butterfly","","familiar","practice_posttest","familiar","stims/audio/find_butterfly.wav","1","stims/images/butterfly.png","1","","","","","","","","","","","","",""
"coact-test-prompt","50","292735","0.0-50.0","p102","1","0","","","","","","2724","","","[""stims/images/manatee.png"",""stims/images/sloth.png"",""stims/images/echidna.png"",""stims/images/bear.png"",""stims/images/raccoon.png"",""stims/images/nyala.png"",""stims/images/turtle.png"",""stims/images/hippopotamus.png""]","manatee","stims/images/manatee.png","somewhat unfamiliar","posttest","1","","","","","","","","","","","","","","","","",""
"coact-test","51","297539","0.0-51.0","p102","1","0","","","","","","367217.57866666664","","","[""stims/images/manatee.png"",""stims/images/sloth.png"",""stims/images/echidna.png"",""stims/images/bear.png"",""stims/images/raccoon.png"",""stims/images/nyala.png"",""stims/images/turtle.png"",""stims/images/hippopotamus.png""]","manatee","","somewhat unfamiliar","posttest","1","stims/audio/wheres_manatee.wav","0","stims/images/manatee.png","1","","","","","","","","","","","","",""
"coact-test-prompt","52","299157","0.0-52.0","p102","1","0","","","","","","1618","","","[""stims/images/turtle.png"",""stims/images/raccoon.png"",""stims/images/nyala.png"",""stims/images/hippopotamus.png"",""stims/images/sloth.png"",""stims/images/bear.png"",""stims/images/echidna.png"",""stims/images/manatee.png""]","turtle","stims/images/turtle.png","familiar","posttest","1","","","","","","","","","","","","","","","","",""
"coact-test","53","302450","0.0-53.0","p102","1","0","","","","","","372122.15466666664","","","[""stims/images/turtle.png"",""stims/images/raccoon.png"",""stims/images/nyala.png"",""stims/images/hippopotamus.png"",""stims/images/sloth.png"",""stims/images/bear.png"",""stims/images/echidna.png"",""stims/images/manatee.png""]","turtle","","familiar","posttest","1","stims/audio/wheres_turtle.wav","0","stims/images/turtle.png","1","","","","","","","","","","","","",""
"coact-test-prompt","54","304267","0.0-54.0","p102","1","0","","","","","","1815.9999999999418","","","[""stims/images/nyala.png"",""stims/images/bear.png"",""stims/images/manatee.png"",""stims/images/echidna.png"",""stims/images/raccoon.png"",""stims/images/sloth.png"",""stims/images/turtle.png"",""stims/images/hippopotamus.png""]","raccoon","stims/images/raccoon.png","somewhat familiar","posttest","1","","","","","","","","","","","","","","","","",""
"coact-test","55","307970","0.0-55.0","p102","1","0","","","","","","377638.0453333333","","","[""stims/images/nyala.png"",""stims/images/bear.png"",""stims/images/manatee.png"",""stims/images/echidna.png"",""stims/images/raccoon.png"",""stims/images/sloth.png"",""stims/images/turtle.png"",""stims/images/hippopotamus.png""]","raccoon","","somewhat familiar","posttest","1","stims/audio/find_raccoon.wav","4","stims/images/raccoon.png","1","","","","","","","","","","","","",""
"coact-test-prompt","56","311424","0.0-56.0","p102","1","0","","","","","","3453","","","[""stims/images/echidna.png"",""stims/images/turtle.png"",""stims/images/sloth.png"",""stims/images/hippopotamus.png"",""stims/images/raccoon.png"",""stims/images/nyala.png"",""stims/images/bear.png"",""stims/images/manatee.png""]","sloth","stims/images/sloth.png","somewhat unfamiliar","posttest","1","","","","","","","","","","","","","","","","",""
"coact-test","57","316169","0.0-57.0","p102","1","0","","","","","","385829.888","","","[""stims/images/echidna.png"",""stims/images/turtle.png"",""stims/images/sloth.png"",""stims/images/hippopotamus.png"",""stims/images/raccoon.png"",""stims/images/nyala.png"",""stims/images/bear.png"",""stims/images/manatee.png""]","sloth","","somewhat unfamiliar","posttest","1","stims/audio/find_sloth.wav","2","stims/images/sloth.png","1","","","","","","","","","","","","",""
"coact-test-prompt","58","318608","0.0-58.0","p102","1","0","","","","","","2439","","","[""stims/images/turtle.png"",""stims/images/hippopotamus.png"",""stims/images/sloth.png"",""stims/images/echidna.png"",""stims/images/manatee.png"",""stims/images/nyala.png"",""stims/images/raccoon.png"",""stims/images/bear.png""]","nyala","stims/images/nyala.png","unfamiliar","posttest","1","","","","","","","","","","","","","","","","",""
"coact-test","59","323804","0.0-59.0","p102","1","0","","","","","","393457.704","","","[""stims/images/turtle.png"",""stims/images/hippopotamus.png"",""stims/images/sloth.png"",""stims/images/echidna.png"",""stims/images/manatee.png"",""stims/images/nyala.png"",""stims/images/raccoon.png"",""stims/images/bear.png""]","nyala","","unfamiliar","posttest","1","stims/audio/wheres_nyala.wav","3","stims/images/echidna.png","0","","","","","","","","","","","","",""
"coact-test-prompt","60","326875","0.0-60.0","p102","1","0","","","","","","3070","","","[""stims/images/sloth.png"",""stims/images/manatee.png"",""stims/images/echidna.png"",""stims/images/raccoon.png"",""stims/images/bear.png"",""stims/images/nyala.png"",""stims/images/turtle.png"",""stims/images/hippopotamus.png""]","bear","stims/images/bear.png","familiar","posttest","1","","","","","","","","","","","","","","","","",""
"coact-test","61","330920","0.0-61.0","p102","1","0","","","","","","400566.4373333333","","","[""stims/images/sloth.png"",""stims/images/manatee.png"",""stims/images/echidna.png"",""stims/images/raccoon.png"",""stims/images/bear.png"",""stims/images/nyala.png"",""stims/images/turtle.png"",""stims/images/hippopotamus.png""]","bear","","familiar","posttest","1","stims/audio/find_bear.wav","4","stims/images/bear.png","1","","","","","","","","","","","","",""
"coact-test-prompt","62","333470","0.0-62.0","p102","1","0","","","","","","2549","","","[""stims/images/hippopotamus.png"",""stims/images/turtle.png"",""stims/images/echidna.png"",""stims/images/bear.png"",""stims/images/manatee.png"",""stims/images/nyala.png"",""stims/images/raccoon.png"",""stims/images/sloth.png""]","echidna","stims/images/echidna.png","unfamiliar","posttest","1","","","","","","","","","","","","","","","","",""
"coact-test","63","338729","0.0-63.0","p102","1","0","","","","","","408368.84266666666","","","[""stims/images/hippopotamus.png"",""stims/images/turtle.png"",""stims/images/echidna.png"",""stims/images/bear.png"",""stims/images/manatee.png"",""stims/images/nyala.png"",""stims/images/raccoon.png"",""stims/images/sloth.png""]","echidna","","unfamiliar","posttest","1","stims/audio/find_echidna.wav","5","stims/images/nyala.png","0","","","","","","","","","","","","",""
"coact-test-prompt","64","340374","0.0-64.0","p102","1","0","","","","","","1645","","","[""stims/images/raccoon.png"",""stims/images/nyala.png"",""stims/images/hippopotamus.png"",""stims/images/manatee.png"",""stims/images/echidna.png"",""stims/images/turtle.png"",""stims/images/bear.png"",""stims/images/sloth.png""]","hippopotamus","stims/images/hippopotamus.png","somewhat familiar","posttest","1","","","","","","","","","","","","","","","","",""
"coact-test","65","343632","0.0-65.0","p102","1","0","","","","","","413265.9386666667","","","[""stims/images/raccoon.png"",""stims/images/nyala.png"",""stims/images/hippopotamus.png"",""stims/images/manatee.png"",""stims/images/echidna.png"",""stims/images/turtle.png"",""stims/images/bear.png"",""stims/images/sloth.png""]","hippopotamus","","somewhat familiar","posttest","1","stims/audio/wheres_hippopotamus.wav","2","stims/images/hippopotamus.png","1","","","","","","","","","","","","",""
