"trial_type","trial_index","time_elapsed","internal_node_id","subject_id","round_name","round_index","success","timeout","failed_images","failed_audio","failed_video","rt","stimulus","response","images","target","target_image","target_type","round_type","set","test_audio","choice","chosen_image","correct","choices","chosen_images","chosen_items","chosen_audio_items","first_choice_location","chosen_images_in_order","chosen_audio_in_order","chosen_items_in_order","condition","sample_num","chosen_index","chosen_audio","central_images"
"pavlovia","0","3","0.0-0.0","p056","4","3","","","","","","","","","","","","","","","","","","","","","","","","","","","","","","",""
"preload","1","135","0.0-1.0","p056","4","3","true","false","[]","[]","[]","","","","","","","","","","","","","","","","","","","","","","","","","",""
"html-button-response","2","7405","0.0-2.0","p056","4","3","","","","","","7270","","0","","","","","","","","","","","","","","","","","","","","","","",""
"coact-test-prompt","3","9050","0.0-3.0","p056","4","3","","","","","","1643","","","[""stims/images/squirrel.png"",""stims/images/cat.png"",""stims/images/butterfly.png"",""stims/images/wolf.png"",""stims/images/frog.png"",""stims/images/horse.png"",""stims/images/duck.png"",""stims/images/cow.png""]","cat","stims/images/cat.png","familiar","practice_pretest","familiar","","","","","","","","","","","","","","","","",""
"coact-test","4","16088","0.0-4.0","p056","4","3","","","","","","24228.045333333335","","","[""stims/images/squirrel.png"",""stims/images/cat.png"",""stims/images/butterfly.png"",""stims/images/wolf.png"",""stims/images/frog.png"",""stims/images/horse.png"",""stims/images/duck.png"",""stims/images/cow.png""]","cat","","familiar","practice_pretest","familiar","stims/audio/wheres_cat.wav","1","stims/images/cat.png","1","","","","","","","","","","","","",""
"coact-test-prompt","5","18780","0.0-5.0","p056","4","3","","","","","","2689.9999999999964","","","[""stims/images/horse.png"",""stims/images/wolf.png"",""stims/images/frog.png"",""stims/images/duck.png"",""stims/images/cat.png"",""stims/images/butterfly.png"",""stims/images/cow.png"",""stims/images/squirrel.png""]","frog","stims/images/frog.png","familiar","practice_pretest","familiar","","","","","","","","","","","","","","","","",""
"coact-test","6","26979","0.0-6.0","p056","4","3","","","","","","35109.312","","","[""stims/images/horse.png"",""stims/images/wolf.png"",""stims/images/frog.png"",""stims/images/duck.png"",""stims/images/cat.png"",""stims/images/butterfly.png"",""stims/images/cow.png"",""stims/images/squirrel.png""]","frog","","familiar","practice_pretest","familiar","stims/audio/wheres_frog.wav","2","stims/images/frog.png","1","","","","","","","","","","","","",""
"coact-test-prompt","7","27481","0.0-7.0","p056","4","3","","","","","","501","","","[""stims/images/armadillo.png"",""stims/images/hippopotamus.png"",""stims/images/rabbit.png"",""stims/images/chameleon.png"",""stims/images/flamingo.png"",""stims/images/pangolin.png"",""stims/images/cormorant.png"",""stims/images/dog.png""]","pangolin","stims/images/pangolin.png","unfamiliar","pretest","4","","","","","","","","","","","","","","","","",""
"coact-test","8","31424","0.0-8.0","p056","4","3","","","","","","39546.616","","","[""stims/images/armadillo.png"",""stims/images/hippopotamus.png"",""stims/images/rabbit.png"",""stims/images/chameleon.png"",""stims/images/flamingo.png"",""stims/images/pangolin.png"",""stims/images/cormorant.png"",""stims/images/dog.png""]","pangolin","","unfamiliar","pretest","4","stims/audio/wheres_pangolin.wav","4","stims/images/flamingo.png","0","","","","","","","","","","","","",""
"coact-test-prompt","9","34547","0.0-9.0","p056","4","3","","","","","","3123","","","[""stims/images/hippopotamus.png"",""stims/images/rabbit.png"",""stims/images/pangolin.png"",""stims/images/chameleon.png"",""stims/images/flamingo.png"",""stims/images/dog.png"",""stims/images/armadillo.png"",""stims/images/cormorant.png""]","rabbit","stims/images/rabbit.png","familiar","pretest","4","","","","","","","","","","","","","","","","",""
"coact-test","10","39636","0.0-10.0","p056","4","3","","","","","","47752.54666666667","","","[""stims/images/hippopotamus.png"",""stims/images/rabbit.png"",""stims/images/pangolin.png"",""stims/images/chameleon.png"",""stims/images/flamingo.png"",""stims/images/dog.png"",""stims/images/armadillo.png"",""stims/images/cormorant.png""]","rabbit","","familiar","pretest","4","stims/audio/find_rabbit.wav","1","stims/images/rabbit.png","1","","","","","","","","","","","","",""
"coact-test-prompt","11","41504","0.0-11.0","p056","4","3","","","","","","1866","","","[""stims/images/chameleon.png"",""stims/images/rabbit.png"",""stims/images/hippopotamus.png"",""stims/images/pangolin.png"",""stims/images/armadillo.png"",""stims/images/dog.png"",""stims/images/cormorant.png"",""stims/images/flamingo.png""]","dog","stims/images/dog.png","familiar","pretest","4","","","","","","","","","","","","","","","","",""
"coact-test","12","45162","0.0-12.0","p056","4","3","","","","","","53272.58933333333","","","[""stims/images/chameleon.png"",""stims/images/rabbit.png"",""stims/images/hippopotamus.png"",""stims/images/pangolin.png"",""stims/images/armadillo.png"",""stims/images/dog.png"",""stims/images/cormorant.png"",""stims/images/flamingo.png""]","dog","","familiar","pretest","4","stims/audio/find_dog.wav","5","stims/images/dog.png","1","","","","","","","","","","","","",""
"coact-test-prompt","13","47307","0.0-13.0","p056","4","3","","","","","","2144","","","[""stims/images/flamingo.png"",""stims/images/chameleon.png"",""stims/images/rabbit.png"",""stims/images/armadillo.png"",""stims/images/dog.png"",""stims/images/hippopotamus.png"",""stims/images/cormorant.png"",""stims/images/pangolin.png""]","armadillo","stims/images/armadillo.png","somewhat unfamiliar","pretest","4","","","","","","","","","","","","","","","","",""
"coact-test","14","51510","0.0-14.0","p056","4","3","","","","","","59614.78666666667","","","[""stims/images/flamingo.png"",""stims/images/chameleon.png"",""stims/images/rabbit.png"",""stims/images/armadillo.png"",""stims/images/dog.png"",""stims/images/hippopotamus.png"",""stims/images/cormorant.png"",""stims/images/pangolin.png""]","armadillo","","somewhat unfamiliar","pretest","4","stims/audio/wheres_armadillo.wav","5","stims/images/hippopotamus.png","0","","","","","","","","","","","","",""
"coact-test-prompt","15","57119","0.0-15.0","p056","4","3","","","","","","5608","","","[""stims/images/dog.png"",""stims/images/flamingo.png"",""stims/images/hippopotamus.png"",""stims/images/chameleon.png"",""stims/images/cormorant.png"",""stims/images/armadillo.png"",""stims/images/rabbit.png"",""stims/images/pangolin.png""]","cormorant","stims/images/cormorant.png","unfamiliar","pretest","4","","","","","","","","","","","","","","","","",""
"coact-test","16","61333","0.0-16.0","p056","4","3","","","","","","69427.97333333333","","","[""stims/images/dog.png"",""stims/images/flamingo.png"",""stims/images/hippopotamus.png"",""stims/images/chameleon.png"",""stims/images/cormorant.png"",""stims/images/armadillo.png"",""stims/images/rabbit.png"",""stims/images/pangolin.png""]","cormorant","","unfamiliar","pretest","4","stims/audio/wheres_cormorant.wav","7","stims/images/pangolin.png","0","","","","","","","","","","","","",""
"coact-test-prompt","17","62449","0.0-17.0","p056","4","3","","","","","","1114","","","[""stims/images/armadillo.png"",""stims/images/pangolin.png"",""stims/images/rabbit.png"",""stims/images/dog.png"",""stims/images/chameleon.png"",""stims/images/hippopotamus.png"",""stims/images/flamingo.png"",""stims/images/cormorant.png""]","flamingo","stims/images/flamingo.png","somewhat familiar","pretest","4","","","","","","","","","","","","","","","","",""
"coact-test","18","66458","0.0-18.0","p056","4","3","","","","","","74547.64533333333","","","[""stims/images/armadillo.png"",""stims/images/pangolin.png"",""stims/images/rabbit.png"",""stims/images/dog.png"",""stims/images/chameleon.png"",""stims/images/hippopotamus.png"",""stims/images/flamingo.png"",""stims/images/cormorant.png""]","flamingo","","somewhat familiar","pretest","4","stims/audio/wheres_flamingo.wav","6","stims/images/flamingo.png","1","","","","","","","","","","","","",""
"coact-test-prompt","19","67669","0.0-19.0","p056","4","3","","","","","","1209","","","[""stims/images/rabbit.png"",""stims/images/dog.png"",""stims/images/pangolin.png"",""stims/images/armadillo.png"",""stims/images/hippopotamus.png"",""stims/images/cormorant.png"",""stims/images/flamingo.png"",""stims/images/chameleon.png""]","chameleon","stims/images/chameleon.png","somewhat unfamiliar","pretest","4","","","","","","","","","","","","","","","","",""
"coact-test","20","71165","0.0-20.0","p056","4","3","","","","","","79249.424","","","[""stims/images/rabbit.png"",""stims/images/dog.png"",""stims/images/pangolin.png"",""stims/images/armadillo.png"",""stims/images/hippopotamus.png"",""stims/images/cormorant.png"",""stims/images/flamingo.png"",""stims/images/chameleon.png""]","chameleon","","somewhat unfamiliar","pretest","4","stims/audio/find_chameleon.wav","7","stims/images/chameleon.png","1","","","","","","","","","","","","",""
"coact-test-prompt","21","72637","0.0-21.0","p056","4","3","","","","","","1472","","","[""stims/images/flamingo.png"",""stims/images/rabbit.png"",""stims/images/pangolin.png"",""stims/images/dog.png"",""stims/images/chameleon.png"",""stims/images/armadillo.png"",""stims/images/cormorant.png"",""stims/images/hippopotamus.png""]","hippopotamus","stims/images/hippopotamus.png","somewhat familiar","pretest","4","","","","","","","","","","","","","","","","",""
"coact-test","22","77405","0.0-22.0","p056","4","3","","","","","","85485.456","","","[""stims/images/flamingo.png"",""stims/images/rabbit.png"",""stims/images/pangolin.png"",""stims/images/dog.png"",""stims/images/chameleon.png"",""stims/images/armadillo.png"",""stims/images/cormorant.png"",""stims/images/hippopotamus.png""]","hippopotamus","","somewhat familiar","pretest","4","stims/audio/find_hippopotamus.wav","7","stims/images/hippopotamus.png","1","","","","","","","","","","","","",""
"html-button-response","23","90272","0.0-23.0","p056","4","3","","","","","","12866","","0","","","","","","","","","","","","","","","","","","","","","","",""
"coact-grid","24","98082","0.0-24.0","p056","4","3","","","","","","6504","","","[""stims/images/frog.png"",""stims/images/cat.png"",""stims/images/cow.png"",""stims/images/horse.png"",""stims/images/squirrel.png"",""stims/images/butterfly.png"",""stims/images/wolf.png"",""stims/images/duck.png""]","","","","","familiar","","","","","[6,0]","[""stims/images/wolf.png"",""stims/images/frog.png""]","[""wolf"",""frog""]","[""stims/audio/thats_wolf.wav"",""stims/audio/thats_frog.wav""]","right","[""stims/images/frog.png"",""stims/images/wolf.png""]","[""stims/audio/thats_frog.wav"",""stims/audio/thats_wolf.wav""]","[""frog"",""wolf""]","active","0","","",""
"coact-grid-choice","25","99760","0.0-25.0","p056","4","3","","","","","","1677","","","[""stims/images/frog.png"",""stims/images/cat.png"",""stims/images/cow.png"",""stims/images/horse.png"",""stims/images/squirrel.png"",""stims/images/butterfly.png"",""stims/images/wolf.png"",""stims/images/duck.png""]","","","","","familiar","","","stims/images/wolf.png","","","[""stims/images/wolf.png"",""stims/images/frog.png""]","","","","[""stims/images/frog.png"",""stims/images/wolf.png""]","[""stims/audio/thats_frog.wav"",""stims/audio/thats_wolf.wav""]","[""frog"",""wolf""]","active","0","1","stims/audio/thats_wolf.wav","[""stims/images/frog.png"",""stims/images/wolf.png""]"
"coact-grid-choice-audio","26","102771","0.0-26.0","p056","4","3","","","","","","3000","","","[""stims/images/frog.png"",""stims/images/cat.png"",""stims/images/cow.png"",""stims/images/horse.png"",""stims/images/squirrel.png"",""stims/images/butterfly.png"",""stims/images/wolf.png"",""stims/images/duck.png""]","","","","","familiar","","","stims/images/wolf.png","","","","","","","","","","active","0","","stims/audio/thats_wolf.wav","[""stims/images/frog.png"",""stims/images/wolf.png""]"
"coact-grid","27","110988","0.0-27.0","p056","4","3","","","","","","6910.000000000015","","","[""stims/images/armadillo.png"",""stims/images/dog.png"",""stims/images/cormorant.png"",""stims/images/flamingo.png"",""stims/images/pangolin.png"",""stims/images/chameleon.png"",""stims/images/rabbit.png"",""stims/images/hippopotamus.png""]","","","","","4","","","","","[5,0]","[""stims/images/chameleon.png"",""stims/images/armadillo.png""]","[""chameleon"",""armadillo""]","[""stims/audio/its_chameleon.wav"",""stims/audio/its_armadillo.wav""]","left","[""stims/images/chameleon.png"",""stims/images/armadillo.png""]","[""stims/audio/its_chameleon.wav"",""stims/audio/its_armadillo.wav""]","[""chameleon"",""armadillo""]","active","0","","",""
"coact-grid-choice","28","123040","0.0-28.0","p056","4","3","","","","","","12051","","","[""stims/images/armadillo.png"",""stims/images/dog.png"",""stims/images/cormorant.png"",""stims/images/flamingo.png"",""stims/images/pangolin.png"",""stims/images/chameleon.png"",""stims/images/rabbit.png"",""stims/images/hippopotamus.png""]","","","","","4","","","stims/images/chameleon.png","","","[""stims/images/chameleon.png"",""stims/images/armadillo.png""]","","","","[""stims/images/chameleon.png"",""stims/images/armadillo.png""]","[""stims/audio/its_chameleon.wav"",""stims/audio/its_armadillo.wav""]","[""chameleon"",""armadillo""]","active","0","0","stims/audio/its_chameleon.wav","[""stims/images/chameleon.png"",""stims/images/armadillo.png""]"
"coact-grid-choice-audio","29","126051","0.0-29.0","p056","4","3","","","","","","3000","","","[""stims/images/armadillo.png"",""stims/images/dog.png"",""stims/images/cormorant.png"",""stims/images/flamingo.png"",""stims/images/pangolin.png"",""stims/images/chameleon.png"",""stims/images/rabbit.png"",""stims/images/hippopotamus.png""]","","","","","4","","","stims/images/chameleon.png","","","","","","","","","","active","0","","stims/audio/its_chameleon.wav","[""stims/images/chameleon.png"",""stims/images/armadillo.png""]"
"coact-grid","30","133336","0.0-30.0","p056","4","3","","","","","","5978.000000000029","","","[""stims/images/rabbit.png"",""stims/images/chameleon.png"",""stims/images/pangolin.png"",""stims/images/cormorant.png"",""stims/images/dog.png"",""stims/images/armadillo.png"",""stims/images/flamingo.png"",""stims/images/hippopotamus.png""]","","","","","4","","","","","[5,2]","[""stims/images/armadillo.png"",""stims/images/pangolin.png""]","[""armadillo"",""pangolin""]","[""stims/audio/thats_armadillo.wav"",""stims/audio/thats_pangolin.wav""]","right","[""stims/images/pangolin.png"",""stims/images/armadillo.png""]","[""stims/audio/thats_pangolin.wav"",""stims/audio/thats_armadillo.wav""]","[""pangolin"",""armadillo""]","active","1","","",""
"coact-grid-choice","31","139432","0.0-31.0","p056","4","3","","","","","","6095","","","[""stims/images/rabbit.png"",""stims/images/chameleon.png"",""stims/images/pangolin.png"",""stims/images/cormorant.png"",""stims/images/dog.png"",""stims/images/armadillo.png"",""stims/images/flamingo.png"",""stims/images/hippopotamus.png""]","","","","","4","","","stims/images/armadillo.png","","","[""stims/images/armadillo.png"",""stims/images/pangolin.png""]","","","","[""stims/images/pangolin.png"",""stims/images/armadillo.png""]","[""stims/audio/thats_pangolin.wav"",""stims/audio/thats_armadillo.wav""]","[""pangolin"",""armadillo""]","active","1","1","stims/audio/thats_armadillo.wav","[""stims/images/pangolin.png"",""stims/images/armadillo.png""]"
"coact-grid-choice-audio","32","142441","0.0-32.0","p056","4","3","","","","","","3003","","","[""stims/images/rabbit.png"",""stims/images/chameleon.png"",""stims/images/pangolin.png"",""stims/images/cormorant.png"",""stims/images/dog.png"",""stims/images/armadillo.png"",""stims/images/flamingo.png"",""stims/images/hippopotamus.png""]","","","","","4","","","stims/images/armadillo.png","","","","","","","","","","active","1","","stims/audio/thats_armadillo.wav","[""stims/images/pangolin.png"",""stims/images/armadillo.png""]"
"coact-grid","33","149587","0.0-33.0","p056","4","3","","","","","","5838","","","[""stims/images/chameleon.png"",""stims/images/armadillo.png"",""stims/images/flamingo.png"",""stims/images/rabbit.png"",""stims/images/dog.png"",""stims/images/pangolin.png"",""stims/images/hippopotamus.png"",""stims/images/cormorant.png""]","","","","","4","","","","","[7,3]","[""stims/images/cormorant.png"",""stims/images/rabbit.png""]","[""cormorant"",""rabbit""]","[""stims/audio/thats_cormorant.wav"",""stims/audio/thats_rabbit.wav""]","left","[""stims/images/cormorant.png"",""stims/images/rabbit.png""]","[""stims/audio/thats_cormorant.wav"",""stims/audio/thats_rabbit.wav""]","[""cormorant"",""rabbit""]","active","2","","",""
"coact-grid-choice","34","165881","0.0-34.0","p056","4","3","","","","","","16294","","","[""stims/images/chameleon.png"",""stims/images/armadillo.png"",""stims/images/flamingo.png"",""stims/images/rabbit.png"",""stims/images/dog.png"",""stims/images/pangolin.png"",""stims/images/hippopotamus.png"",""stims/images/cormorant.png""]","","","","","4","","","stims/images/rabbit.png","","","[""stims/images/cormorant.png"",""stims/images/rabbit.png""]","","","","[""stims/images/cormorant.png"",""stims/images/rabbit.png""]","[""stims/audio/thats_cormorant.wav"",""stims/audio/thats_rabbit.wav""]","[""cormorant"",""rabbit""]","active","2","1","stims/audio/thats_rabbit.wav","[""stims/images/cormorant.png"",""stims/images/rabbit.png""]"
"coact-grid-choice-audio","35","168891","0.0-35.0","p056","4","3","","","","","","3000","","","[""stims/images/chameleon.png"",""stims/images/armadillo.png"",""stims/images/flamingo.png"",""stims/images/rabbit.png"",""stims/images/dog.png"",""stims/images/pangolin.png"",""stims/images/hippopotamus.png"",""stims/images/cormorant.png""]","","","","","4","","","stims/images/rabbit.png","","","","","","","","","","active","2","","stims/audio/thats_rabbit.wav","[""stims/images/cormorant.png"",""stims/images/rabbit.png""]"
"coact-grid","36","174240","0.0-36.0","p056","4","3","","","","","","4037.999999999971","","","[""stims/images/dog.png"",""stims/images/hippopotamus.png"",""stims/images/chameleon.png"",""stims/images/cormorant.png"",""stims/images/rabbit.png"",""stims/images/armadillo.png"",""stims/images/pangolin.png"",""stims/images/flamingo.png""]","","","","","4","","","","","[2,7]","[""stims/images/chameleon.png"",""stims/images/flamingo.png""]","[""chameleon"",""flamingo""]","[""stims/audio/its_chameleon.wav"",""stims/audio/its_flamingo.wav""]","right","[""stims/images/flamingo.png"",""stims/images/chameleon.png""]","[""stims/audio/its_flamingo.wav"",""stims/audio/its_chameleon.wav""]","[""flamingo"",""chameleon""]","active","3","","",""
"coact-grid-choice","37","177454","0.0-37.0","p056","4","3","","","","","","3211.999999999971","","","[""stims/images/dog.png"",""stims/images/hippopotamus.png"",""stims/images/chameleon.png"",""stims/images/cormorant.png"",""stims/images/rabbit.png"",""stims/images/armadillo.png"",""stims/images/pangolin.png"",""stims/images/flamingo.png""]","","","","","4","","","stims/images/chameleon.png","","","[""stims/images/chameleon.png"",""stims/images/flamingo.png""]","","","","[""stims/images/flamingo.png"",""stims/images/chameleon.png""]","[""stims/audio/its_flamingo.wav"",""stims/audio/its_chameleon.wav""]","[""flamingo"",""chameleon""]","active","3","1","stims/audio/its_chameleon.wav","[""stims/images/flamingo.png"",""stims/images/chameleon.png""]"
"coact-grid-choice-audio","38","180465","0.0-38.0","p056","4","3","","","","","","3003","","","[""stims/images/dog.png"",""stims/images/hippopotamus.png"",""stims/images/chameleon.png"",""stims/images/cormorant.png"",""stims/images/rabbit.png"",""stims/images/armadillo.png"",""stims/images/pangolin.png"",""stims/images/flamingo.png""]","","","","","4","","","stims/images/chameleon.png","","","","","","","","","","active","3","","stims/audio/its_chameleon.wav","[""stims/images/flamingo.png"",""stims/images/chameleon.png""]"
"coact-grid","39","186432","0.0-39.0","p056","4","3","","","","","","4661","","","[""stims/images/armadillo.png"",""stims/images/chameleon.png"",""stims/images/rabbit.png"",""stims/images/pangolin.png"",""stims/images/cormorant.png"",""stims/images/dog.png"",""stims/images/hippopotamus.png"",""stims/images/flamingo.png""]","","","","","4","","","","","[7,6]","[""stims/images/flamingo.png"",""stims/images/hippopotamus.png""]","[""flamingo"",""hippopotamus""]","[""stims/audio/its_flamingo.wav"",""stims/audio/its_hippopotamus.wav""]","left","[""stims/images/flamingo.png"",""stims/images/hippopotamus.png""]","[""stims/audio/its_flamingo.wav"",""stims/audio/its_hippopotamus.wav""]","[""flamingo"",""hippopotamus""]","active","4","","",""
"coact-grid-choice","40","188510","0.0-40.0","p056","4","3","","","","","","2076","","","[""stims/images/armadillo.png"",""stims/images/chameleon.png"",""stims/images/rabbit.png"",""stims/images/pangolin.png"",""stims/images/cormorant.png"",""stims/images/dog.png"",""stims/images/hippopotamus.png"",""stims/images/flamingo.png""]","","","","","4","","","stims/images/hippopotamus.png","","","[""stims/images/flamingo.png"",""stims/images/hippopotamus.png""]","","","","[""stims/images/flamingo.png"",""stims/images/hippopotamus.png""]","[""stims/audio/its_flamingo.wav"",""stims/audio/its_hippopotamus.wav""]","[""flamingo"",""hippopotamus""]","active","4","1","stims/audio/its_hippopotamus.wav","[""stims/images/flamingo.png"",""stims/images/hippopotamus.png""]"
"coact-grid-choice-audio","41","191519","0.0-41.0","p056","4","3","","","","","","3003","","","[""stims/images/armadillo.png"",""stims/images/chameleon.png"",""stims/images/rabbit.png"",""stims/images/pangolin.png"",""stims/images/cormorant.png"",""stims/images/dog.png"",""stims/images/hippopotamus.png"",""stims/images/flamingo.png""]","","","","","4","","","stims/images/hippopotamus.png","","","","","","","","","","active","4","","stims/audio/its_hippopotamus.wav","[""stims/images/flamingo.png"",""stims/images/hippopotamus.png""]"
"coact-grid","42","197616","0.0-42.0","p056","4","3","","","","","","4789","","","[""stims/images/chameleon.png"",""stims/images/rabbit.png"",""stims/images/armadillo.png"",""stims/images/cormorant.png"",""stims/images/pangolin.png"",""stims/images/hippopotamus.png"",""stims/images/dog.png"",""stims/images/flamingo.png""]","","","","","4","","","","","[2,6]","[""stims/images/armadillo.png"",""stims/images/dog.png""]","[""armadillo"",""dog""]","[""stims/audio/thats_armadillo.wav"",""stims/audio/thats_dog.wav""]","right","[""stims/images/dog.png"",""stims/images/armadillo.png""]","[""stims/audio/thats_dog.wav"",""stims/audio/thats_armadillo.wav""]","[""dog"",""armadillo""]","active","5","","",""
"coact-grid-choice","43","199466","0.0-43.0","p056","4","3","","","","","","1849","","","[""stims/images/chameleon.png"",""stims/images/rabbit.png"",""stims/images/armadillo.png"",""stims/images/cormorant.png"",""stims/images/pangolin.png"",""stims/images/hippopotamus.png"",""stims/images/dog.png"",""stims/images/flamingo.png""]","","","","","4","","","stims/images/armadillo.png","","","[""stims/images/armadillo.png"",""stims/images/dog.png""]","","","","[""stims/images/dog.png"",""stims/images/armadillo.png""]","[""stims/audio/thats_dog.wav"",""stims/audio/thats_armadillo.wav""]","[""dog"",""armadillo""]","active","5","1","stims/audio/thats_armadillo.wav","[""stims/images/dog.png"",""stims/images/armadillo.png""]"
"coact-grid-choice-audio","44","202477","0.0-44.0","p056","4","3","","","","","","3000","","","[""stims/images/chameleon.png"",""stims/images/rabbit.png"",""stims/images/armadillo.png"",""stims/images/cormorant.png"",""stims/images/pangolin.png"",""stims/images/hippopotamus.png"",""stims/images/dog.png"",""stims/images/flamingo.png""]","","","","","4","","","stims/images/armadillo.png","","","","","","","","","","active","5","","stims/audio/thats_armadillo.wav","[""stims/images/dog.png"",""stims/images/armadillo.png""]"
"html-button-response","45","210446","0.0-45.0","p056","4","3","","","","","","7967","","0","","","","","","","","","","","","","","","","","","","","","","",""
"coact-test-prompt","46","212201","0.0-46.0","p056","4","3","","","","","","1753","","","[""stims/images/cow.png"",""stims/images/wolf.png"",""stims/images/butterfly.png"",""stims/images/horse.png"",""stims/images/duck.png"",""stims/images/squirrel.png"",""stims/images/frog.png"",""stims/images/cat.png""]","cat","stims/images/cat.png","familiar","practice_posttest","familiar","","","","","","","","","","","","","","","","",""
"coact-test","47","215272","0.0-47.0","p056","4","3","","","","","","223220.89066666667","","","[""stims/images/cow.png"",""stims/images/wolf.png"",""stims/images/butterfly.png"",""stims/images/horse.png"",""stims/images/duck.png"",""stims/images/squirrel.png"",""stims/images/frog.png"",""stims/images/cat.png""]","cat","","familiar","practice_posttest","familiar","stims/audio/wheres_cat.wav","7","stims/images/cat.png","1","","","","","","","","","","","","",""
"coact-test-prompt","48","216928","0.0-48.0","p056","4","3","","","","","","1655","","","[""stims/images/wolf.png"",""stims/images/cow.png"",""stims/images/duck.png"",""stims/images/horse.png"",""stims/images/squirrel.png"",""stims/images/cat.png"",""stims/images/butterfly.png"",""stims/images/frog.png""]","frog","stims/images/frog.png","familiar","practice_posttest","familiar","","","","","","","","","","","","","","","","",""
"coact-test","49","219830","0.0-49.0","p056","4","3","","","","","","227774.16533333334","","","[""stims/images/wolf.png"",""stims/images/cow.png"",""stims/images/duck.png"",""stims/images/horse.png"",""stims/images/squirrel.png"",""stims/images/cat.png"",""stims/images/butterfly.png"",""stims/images/frog.png""]","frog","","familiar","practice_posttest","familiar","stims/audio/wheres_frog.wav","7","stims/images/frog.png","1","","","","","","","","","","","","",""
"coact-test-prompt","50","221664","0.0-50.0","p056","4","3","","","","","","1834","","","[""stims/images/dog.png"",""stims/images/flamingo.png"",""stims/images/cormorant.png"",""stims/images/chameleon.png"",""stims/images/rabbit.png"",""stims/images/pangolin.png"",""stims/images/hippopotamus.png"",""stims/images/armadillo.png""]","dog","stims/images/dog.png","familiar","posttest","4","","","","","","","","","","","","","","","","",""
"coact-test","51","228126","0.0-51.0","p056","4","3","","","","","","236067.42933333336","","","[""stims/images/dog.png"",""stims/images/flamingo.png"",""stims/images/cormorant.png"",""stims/images/chameleon.png"",""stims/images/rabbit.png"",""stims/images/pangolin.png"",""stims/images/hippopotamus.png"",""stims/images/armadillo.png""]","dog","","familiar","posttest","4","stims/audio/find_dog.wav","0","stims/images/dog.png","1","","","","","","","","","","","","",""
"coact-test-prompt","52","229702","0.0-52.0","p056","4","3","","","","","","1574","","","[""stims/images/dog.png"",""stims/images/hippopotamus.png"",""stims/images/flamingo.png"",""stims/images/pangolin.png"",""stims/images/armadillo.png"",""stims/images/rabbit.png"",""stims/images/cormorant.png"",""stims/images/chameleon.png""]","armadillo","stims/images/armadillo.png","somewhat unfamiliar","posttest","4","","","","","","","","","","","","","","","","",""
"coact-test","53","236379","0.0-53.0","p056","4","3","","","","","","244311.38933333333","","","[""stims/images/dog.png"",""stims/images/hippopotamus.png"",""stims/images/flamingo.png"",""stims/images/pangolin.png"",""stims/images/armadillo.png"",""stims/images/rabbit.png"",""stims/images/cormorant.png"",""stims/images/chameleon.png""]","armadillo","","somewhat unfamiliar","posttest","4","stims/audio/wheres_armadillo.wav","1","stims/images/hippopotamus.png","0","","","","","","","","","","","","",""
"coact-test-prompt","54","237650","0.0-54.0","p056","4","3","","","","","","1270","","","[""stims/images/hippopotamus.png"",""stims/images/flamingo.png"",""stims/images/cormorant.png"",""stims/images/pangolin.png"",""stims/images/dog.png"",""stims/images/armadillo.png"",""stims/images/rabbit.png"",""stims/images/chameleon.png""]","pangolin","stims/images/pangolin.png","unfamiliar","posttest","4","","","","","","","","","","","","","","","","",""
"coact-test","55","243069","0.0-55.0","p056","4","3","","","","","","250995.44533333334","","","[""stims/images/hippopotamus.png"",""stims/images/flamingo.png"",""stims/images/cormorant.png"",""stims/images/pangolin.png"",""stims/images/dog.png"",""stims/images/armadillo.png"",""stims/images/rabbit.png"",""stims/images/chameleon.png""]","pangolin","","unfamiliar","posttest","4","stims/audio/find_pangolin.wav","7","stims/images/chameleon.png","0","","","","","","","","","","","","",""
"coact-test-prompt","56","244297","0.0-56.0","p056","4","3","","","","","","1226","","","[""stims/images/flamingo.png"",""stims/images/chameleon.png"",""stims/images/pangolin.png"",""stims/images/hippopotamus.png"",""stims/images/armadillo.png"",""stims/images/dog.png"",""stims/images/rabbit.png"",""stims/images/cormorant.png""]","cormorant","stims/images/cormorant.png","unfamiliar","posttest","4","","","","","","","","","","","","","","","","",""
"coact-test","57","259846","0.0-57.0","p056","4","3","","","","","","267765.79466666665","","","[""stims/images/flamingo.png"",""stims/images/chameleon.png"",""stims/images/pangolin.png"",""stims/images/hippopotamus.png"",""stims/images/armadillo.png"",""stims/images/dog.png"",""stims/images/rabbit.png"",""stims/images/cormorant.png""]","cormorant","","unfamiliar","posttest","4","stims/audio/find_cormorant.wav","4","stims/images/armadillo.png","0","","","","","","","","","","","","",""
"coact-test-prompt","58","261455","0.0-58.0","p056","4","3","","","","","","1608","","","[""stims/images/rabbit.png"",""stims/images/dog.png"",""stims/images/hippopotamus.png"",""stims/images/armadillo.png"",""stims/images/chameleon.png"",""stims/images/flamingo.png"",""stims/images/pangolin.png"",""stims/images/cormorant.png""]","hippopotamus","stims/images/hippopotamus.png","somewhat familiar","posttest","4","","","","","","","","","","","","","","","","",""
"coact-test","59","272388","0.0-59.0","p056","4","3","","","","","","280291.6373333333","","","[""stims/images/rabbit.png"",""stims/images/dog.png"",""stims/images/hippopotamus.png"",""stims/images/armadillo.png"",""stims/images/chameleon.png"",""stims/images/flamingo.png"",""stims/images/pangolin.png"",""stims/images/cormorant.png""]","hippopotamus","","somewhat familiar","posttest","4","stims/audio/find_hippopotamus.wav","6","stims/images/pangolin.png","0","","","","","","","","","","","","",""
"coact-test-prompt","60","275072","0.0-60.0","p056","4","3","","","","","","2683","","","[""stims/images/hippopotamus.png"",""stims/images/flamingo.png"",""stims/images/rabbit.png"",""stims/images/dog.png"",""stims/images/cormorant.png"",""stims/images/armadillo.png"",""stims/images/chameleon.png"",""stims/images/pangolin.png""]","rabbit","stims/images/rabbit.png","familiar","posttest","4","","","","","","","","","","","","","","","","",""
"coact-test","61","283502","0.0-61.0","p056","4","3","","","","","","291392.0186666667","","","[""stims/images/hippopotamus.png"",""stims/images/flamingo.png"",""stims/images/rabbit.png"",""stims/images/dog.png"",""stims/images/cormorant.png"",""stims/images/armadillo.png"",""stims/images/chameleon.png"",""stims/images/pangolin.png""]","rabbit","","familiar","posttest","4","stims/audio/wheres_rabbit.wav","2","stims/images/rabbit.png","1","","","","","","","","","","","","",""
"coact-test-prompt","62","288729","0.0-62.0","p056","4","3","","","","","","5226","","","[""stims/images/chameleon.png"",""stims/images/hippopotamus.png"",""stims/images/dog.png"",""stims/images/flamingo.png"",""stims/images/rabbit.png"",""stims/images/armadillo.png"",""stims/images/pangolin.png"",""stims/images/cormorant.png""]","flamingo","stims/images/flamingo.png","somewhat familiar","posttest","4","","","","","","","","","","","","","","","","",""
"coact-test","63","293902","0.0-63.0","p056","4","3","","","","","","301779.3626666667","","","[""stims/images/chameleon.png"",""stims/images/hippopotamus.png"",""stims/images/dog.png"",""stims/images/flamingo.png"",""stims/images/rabbit.png"",""stims/images/armadillo.png"",""stims/images/pangolin.png"",""stims/images/cormorant.png""]","flamingo","","somewhat familiar","posttest","4","stims/audio/wheres_flamingo.wav","3","stims/images/flamingo.png","1","","","","","","","","","","","","",""
"coact-test-prompt","64","295321","0.0-64.0","p056","4","3","","","","","","1417","","","[""stims/images/chameleon.png"",""stims/images/dog.png"",""stims/images/rabbit.png"",""stims/images/hippopotamus.png"",""stims/images/pangolin.png"",""stims/images/cormorant.png"",""stims/images/flamingo.png"",""stims/images/armadillo.png""]","chameleon","stims/images/chameleon.png","somewhat unfamiliar","posttest","4","","","","","","","","","","","","","","","","",""
"coact-test","65","300540","0.0-65.0","p056","4","3","","","","","","308410.7706666667","","","[""stims/images/chameleon.png"",""stims/images/dog.png"",""stims/images/rabbit.png"",""stims/images/hippopotamus.png"",""stims/images/pangolin.png"",""stims/images/cormorant.png"",""stims/images/flamingo.png"",""stims/images/armadillo.png""]","chameleon","","somewhat unfamiliar","posttest","4","stims/audio/wheres_chameleon.wav","4","stims/images/pangolin.png","0","","","","","","","","","","","","",""
