"trial_type","trial_index","time_elapsed","internal_node_id","subject_id","round_name","round_index","success","timeout","failed_images","failed_audio","failed_video","rt","stimulus","response","images","target","target_image","target_type","round_type","set","test_audio","choice","chosen_image","correct","choices","chosen_images","chosen_items","chosen_audio_items","first_choice_location","chosen_images_in_order","chosen_audio_in_order","chosen_items_in_order","condition","sample_num","chosen_index","chosen_audio","central_images"
"pavlovia","0","3","0.0-0.0","p081","4","3","","","","","","","","","","","","","","","","","","","","","","","","","","","","","","",""
"preload","1","352","0.0-1.0","p081","4","3","true","false","[]","[]","[]","","","","","","","","","","","","","","","","","","","","","","","","","",""
"html-button-response","2","4647","0.0-2.0","p081","4","3","","","","","","4294","","0","","","","","","","","","","","","","","","","","","","","","","",""
"coact-test-prompt","3","6339","0.0-3.0","p081","4","3","","","","","","1691","","","[""stims/images/squirrel.png"",""stims/images/horse.png"",""stims/images/wolf.png"",""stims/images/frog.png"",""stims/images/duck.png"",""stims/images/butterfly.png"",""stims/images/cow.png"",""stims/images/cat.png""]","horse","stims/images/horse.png","familiar","practice_pretest","familiar","","","","","","","","","","","","","","","","",""
"coact-test","4","11432","0.0-4.0","p081","4","3","","","","","","18087.928","","","[""stims/images/squirrel.png"",""stims/images/horse.png"",""stims/images/wolf.png"",""stims/images/frog.png"",""stims/images/duck.png"",""stims/images/butterfly.png"",""stims/images/cow.png"",""stims/images/cat.png""]","horse","","familiar","practice_pretest","familiar","stims/audio/find_horse.wav","1","stims/images/horse.png","1","","","","","","","","","","","","",""
"coact-test-prompt","5","13420","0.0-5.0","p081","4","3","","","","","","1986.0000000000036","","","[""stims/images/butterfly.png"",""stims/images/duck.png"",""stims/images/cow.png"",""stims/images/frog.png"",""stims/images/squirrel.png"",""stims/images/horse.png"",""stims/images/cat.png"",""stims/images/wolf.png""]","wolf","stims/images/wolf.png","familiar","practice_pretest","familiar","","","","","","","","","","","","","","","","",""
"coact-test","6","16574","0.0-6.0","p081","4","3","","","","","","23222.848","","","[""stims/images/butterfly.png"",""stims/images/duck.png"",""stims/images/cow.png"",""stims/images/frog.png"",""stims/images/squirrel.png"",""stims/images/horse.png"",""stims/images/cat.png"",""stims/images/wolf.png""]","wolf","","familiar","practice_pretest","familiar","stims/audio/wheres_wolf.wav","7","stims/images/wolf.png","1","","","","","","","","","","","","",""
"coact-test-prompt","7","19152","0.0-7.0","p081","4","3","","","","","","2578","","","[""stims/images/tapir.png"",""stims/images/rabbit.png"",""stims/images/porcupine.png"",""stims/images/armadillo.png"",""stims/images/dolphin.png"",""stims/images/elephant.png"",""stims/images/alpaca.png"",""stims/images/wombat.png""]","tapir","stims/images/tapir.png","unfamiliar","pretest","4","","","","","","","","","","","","","","","","",""
"coact-test","8","21059","0.0-8.0","p081","4","3","","","","","","27702.11733333333","","","[""stims/images/tapir.png"",""stims/images/rabbit.png"",""stims/images/porcupine.png"",""stims/images/armadillo.png"",""stims/images/dolphin.png"",""stims/images/elephant.png"",""stims/images/alpaca.png"",""stims/images/wombat.png""]","tapir","","unfamiliar","pretest","4","stims/audio/wheres_tapir.wav","2","stims/images/porcupine.png","0","","","","","","","","","","","","",""
"coact-test-prompt","9","22553","0.0-9.0","p081","4","3","","","","","","1494.0000000000036","","","[""stims/images/alpaca.png"",""stims/images/tapir.png"",""stims/images/wombat.png"",""stims/images/dolphin.png"",""stims/images/elephant.png"",""stims/images/porcupine.png"",""stims/images/armadillo.png"",""stims/images/rabbit.png""]","alpaca","stims/images/alpaca.png","somewhat unfamiliar","pretest","4","","","","","","","","","","","","","","","","",""
"coact-test","10","29459","0.0-10.0","p081","4","3","","","","","","36098.717333333334","","","[""stims/images/alpaca.png"",""stims/images/tapir.png"",""stims/images/wombat.png"",""stims/images/dolphin.png"",""stims/images/elephant.png"",""stims/images/porcupine.png"",""stims/images/armadillo.png"",""stims/images/rabbit.png""]","alpaca","","somewhat unfamiliar","pretest","4","stims/audio/wheres_alpaca.wav","0","stims/images/alpaca.png","1","","","","","","","","","","","","",""
"coact-test-prompt","11","31000","0.0-11.0","p081","4","3","","","","","","1540.0000000000073","","","[""stims/images/rabbit.png"",""stims/images/wombat.png"",""stims/images/alpaca.png"",""stims/images/tapir.png"",""stims/images/dolphin.png"",""stims/images/armadillo.png"",""stims/images/elephant.png"",""stims/images/porcupine.png""]","elephant","stims/images/elephant.png","familiar","pretest","4","","","","","","","","","","","","","","","","",""
"coact-test","12","34880","0.0-12.0","p081","4","3","","","","","","41510.272000000004","","","[""stims/images/rabbit.png"",""stims/images/wombat.png"",""stims/images/alpaca.png"",""stims/images/tapir.png"",""stims/images/dolphin.png"",""stims/images/armadillo.png"",""stims/images/elephant.png"",""stims/images/porcupine.png""]","elephant","","familiar","pretest","4","stims/audio/find_elephant.wav","6","stims/images/elephant.png","1","","","","","","","","","","","","",""
"coact-test-prompt","13","36503","0.0-13.0","p081","4","3","","","","","","1622","","","[""stims/images/elephant.png"",""stims/images/dolphin.png"",""stims/images/alpaca.png"",""stims/images/porcupine.png"",""stims/images/rabbit.png"",""stims/images/wombat.png"",""stims/images/armadillo.png"",""stims/images/tapir.png""]","porcupine","stims/images/porcupine.png","somewhat familiar","pretest","4","","","","","","","","","","","","","","","","",""
"coact-test","14","39800","0.0-14.0","p081","4","3","","","","","","46424.768","","","[""stims/images/elephant.png"",""stims/images/dolphin.png"",""stims/images/alpaca.png"",""stims/images/porcupine.png"",""stims/images/rabbit.png"",""stims/images/wombat.png"",""stims/images/armadillo.png"",""stims/images/tapir.png""]","porcupine","","somewhat familiar","pretest","4","stims/audio/wheres_porcupine.wav","3","stims/images/porcupine.png","1","","","","","","","","","","","","",""
"coact-test-prompt","15","40066","0.0-15.0","p081","4","3","","","","","","264","","","[""stims/images/dolphin.png"",""stims/images/alpaca.png"",""stims/images/rabbit.png"",""stims/images/armadillo.png"",""stims/images/porcupine.png"",""stims/images/elephant.png"",""stims/images/tapir.png"",""stims/images/wombat.png""]","rabbit","stims/images/rabbit.png","familiar","pretest","4","","","","","","","","","","","","","","","","",""
"coact-test","16","43384","0.0-16.0","p081","4","3","","","","","","50005.20533333333","","","[""stims/images/dolphin.png"",""stims/images/alpaca.png"",""stims/images/rabbit.png"",""stims/images/armadillo.png"",""stims/images/porcupine.png"",""stims/images/elephant.png"",""stims/images/tapir.png"",""stims/images/wombat.png""]","rabbit","","familiar","pretest","4","stims/audio/find_rabbit.wav","2","stims/images/rabbit.png","1","","","","","","","","","","","","",""
"coact-test-prompt","17","43477","0.0-17.0","p081","4","3","","","","","","92","","","[""stims/images/elephant.png"",""stims/images/wombat.png"",""stims/images/dolphin.png"",""stims/images/porcupine.png"",""stims/images/rabbit.png"",""stims/images/alpaca.png"",""stims/images/armadillo.png"",""stims/images/tapir.png""]","armadillo","stims/images/armadillo.png","somewhat unfamiliar","pretest","4","","","","","","","","","","","","","","","","",""
"coact-test","18","46796","0.0-18.0","p081","4","3","","","","","","53413.8","","","[""stims/images/elephant.png"",""stims/images/wombat.png"",""stims/images/dolphin.png"",""stims/images/porcupine.png"",""stims/images/rabbit.png"",""stims/images/alpaca.png"",""stims/images/armadillo.png"",""stims/images/tapir.png""]","armadillo","","somewhat unfamiliar","pretest","4","stims/audio/find_armadillo.wav","6","stims/images/armadillo.png","1","","","","","","","","","","","","",""
"coact-test-prompt","19","47129","0.0-19.0","p081","4","3","","","","","","333","","","[""stims/images/alpaca.png"",""stims/images/tapir.png"",""stims/images/porcupine.png"",""stims/images/elephant.png"",""stims/images/armadillo.png"",""stims/images/dolphin.png"",""stims/images/wombat.png"",""stims/images/rabbit.png""]","dolphin","stims/images/dolphin.png","somewhat familiar","pretest","4","","","","","","","","","","","","","","","","",""
"coact-test","20","50264","0.0-20.0","p081","4","3","","","","","","56878.14400000001","","","[""stims/images/alpaca.png"",""stims/images/tapir.png"",""stims/images/porcupine.png"",""stims/images/elephant.png"",""stims/images/armadillo.png"",""stims/images/dolphin.png"",""stims/images/wombat.png"",""stims/images/rabbit.png""]","dolphin","","somewhat familiar","pretest","4","stims/audio/find_dolphin.wav","5","stims/images/dolphin.png","1","","","","","","","","","","","","",""
"coact-test-prompt","21","51632","0.0-21.0","p081","4","3","","","","","","1367.0000000000073","","","[""stims/images/armadillo.png"",""stims/images/alpaca.png"",""stims/images/porcupine.png"",""stims/images/rabbit.png"",""stims/images/dolphin.png"",""stims/images/elephant.png"",""stims/images/wombat.png"",""stims/images/tapir.png""]","wombat","stims/images/wombat.png","unfamiliar","pretest","4","","","","","","","","","","","","","","","","",""
"coact-test","22","56641","0.0-22.0","p081","4","3","","","","","","63251.642666666674","","","[""stims/images/armadillo.png"",""stims/images/alpaca.png"",""stims/images/porcupine.png"",""stims/images/rabbit.png"",""stims/images/dolphin.png"",""stims/images/elephant.png"",""stims/images/wombat.png"",""stims/images/tapir.png""]","wombat","","unfamiliar","pretest","4","stims/audio/wheres_wombat.wav","6","stims/images/wombat.png","1","","","","","","","","","","","","",""
"html-button-response","23","57560","0.0-23.0","p081","4","3","","","","","","917","","0","","","","","","","","","","","","","","","","","","","","","","",""
"coact-grid","24","78595","0.0-24.0","p081","4","3","","","","","","19723.000000000022","","","[""stims/images/cow.png"",""stims/images/butterfly.png"",""stims/images/wolf.png"",""stims/images/duck.png"",""stims/images/horse.png"",""stims/images/frog.png"",""stims/images/cat.png"",""stims/images/squirrel.png""]","","","","","familiar","","","","","[2,3]","[""stims/images/wolf.png"",""stims/images/duck.png""]","[""wolf"",""duck""]","[""stims/audio/its_wolf.wav"",""stims/audio/its_duck.wav""]","left","[""stims/images/wolf.png"",""stims/images/duck.png""]","[""stims/audio/its_wolf.wav"",""stims/audio/its_duck.wav""]","[""wolf"",""duck""]","passive","0","","",""
"coact-grid-choice","25","81512","0.0-25.0","p081","4","3","","","","","","2915","","","[""stims/images/cow.png"",""stims/images/butterfly.png"",""stims/images/wolf.png"",""stims/images/duck.png"",""stims/images/horse.png"",""stims/images/frog.png"",""stims/images/cat.png"",""stims/images/squirrel.png""]","","","","","familiar","","","stims/images/duck.png","","","[""stims/images/wolf.png"",""stims/images/duck.png""]","","","","[""stims/images/wolf.png"",""stims/images/duck.png""]","[""stims/audio/its_wolf.wav"",""stims/audio/its_duck.wav""]","[""wolf"",""duck""]","active","0","1","stims/audio/its_duck.wav","[""stims/images/wolf.png"",""stims/images/duck.png""]"
"coact-grid-choice-audio","26","84523","0.0-26.0","p081","4","3","","","","","","3003","","","[""stims/images/cow.png"",""stims/images/butterfly.png"",""stims/images/wolf.png"",""stims/images/duck.png"",""stims/images/horse.png"",""stims/images/frog.png"",""stims/images/cat.png"",""stims/images/squirrel.png""]","","","","","familiar","","","stims/images/duck.png","","","","","","","","","","active","0","","stims/audio/its_duck.wav","[""stims/images/wolf.png"",""stims/images/duck.png""]"
"coact-grid","27","88480","0.0-27.0","p081","4","3","","","","","","2648.0000000000146","","","[""stims/images/alpaca.png"",""stims/images/wombat.png"",""stims/images/dolphin.png"",""stims/images/elephant.png"",""stims/images/rabbit.png"",""stims/images/porcupine.png"",""stims/images/tapir.png"",""stims/images/armadillo.png""]","","","","","4","","","","","[6,0]","[""stims/images/tapir.png"",""stims/images/alpaca.png""]","[""tapir"",""alpaca""]","[""stims/audio/its_tapir.wav"",""stims/audio/its_alpaca.wav""]","left","[""stims/images/tapir.png"",""stims/images/alpaca.png""]","[""stims/audio/its_tapir.wav"",""stims/audio/its_alpaca.wav""]","[""tapir"",""alpaca""]","passive","0","","",""
"coact-grid-choice","28","89967","0.0-28.0","p081","4","3","","","","","","1485","","","[""stims/images/alpaca.png"",""stims/images/wombat.png"",""stims/images/dolphin.png"",""stims/images/elephant.png"",""stims/images/rabbit.png"",""stims/images/porcupine.png"",""stims/images/tapir.png"",""stims/images/armadillo.png""]","","","","","4","","","stims/images/alpaca.png","","","[""stims/images/tapir.png"",""stims/images/alpaca.png""]","","","","[""stims/images/tapir.png"",""stims/images/alpaca.png""]","[""stims/audio/its_tapir.wav"",""stims/audio/its_alpaca.wav""]","[""tapir"",""alpaca""]","active","0","1","stims/audio/its_alpaca.wav","[""stims/images/tapir.png"",""stims/images/alpaca.png""]"
"coact-grid-choice-audio","29","92977","0.0-29.0","p081","4","3","","","","","","3003","","","[""stims/images/alpaca.png"",""stims/images/wombat.png"",""stims/images/dolphin.png"",""stims/images/elephant.png"",""stims/images/rabbit.png"",""stims/images/porcupine.png"",""stims/images/tapir.png"",""stims/images/armadillo.png""]","","","","","4","","","stims/images/alpaca.png","","","","","","","","","","active","0","","stims/audio/its_alpaca.wav","[""stims/images/tapir.png"",""stims/images/alpaca.png""]"
"coact-grid","30","96642","0.0-30.0","p081","4","3","","","","","","2357","","","[""stims/images/dolphin.png"",""stims/images/porcupine.png"",""stims/images/wombat.png"",""stims/images/tapir.png"",""stims/images/rabbit.png"",""stims/images/alpaca.png"",""stims/images/armadillo.png"",""stims/images/elephant.png""]","","","","","4","","","","","[1,4]","[""stims/images/porcupine.png"",""stims/images/rabbit.png""]","[""porcupine"",""rabbit""]","[""stims/audio/its_porcupine.wav"",""stims/audio/its_rabbit.wav""]","left","[""stims/images/porcupine.png"",""stims/images/rabbit.png""]","[""stims/audio/its_porcupine.wav"",""stims/audio/its_rabbit.wav""]","[""porcupine"",""rabbit""]","passive","1","","",""
"coact-grid-choice","31","99890","0.0-31.0","p081","4","3","","","","","","3245","","","[""stims/images/dolphin.png"",""stims/images/porcupine.png"",""stims/images/wombat.png"",""stims/images/tapir.png"",""stims/images/rabbit.png"",""stims/images/alpaca.png"",""stims/images/armadillo.png"",""stims/images/elephant.png""]","","","","","4","","","stims/images/porcupine.png","","","[""stims/images/porcupine.png"",""stims/images/rabbit.png""]","","","","[""stims/images/porcupine.png"",""stims/images/rabbit.png""]","[""stims/audio/its_porcupine.wav"",""stims/audio/its_rabbit.wav""]","[""porcupine"",""rabbit""]","active","1","0","stims/audio/its_porcupine.wav","[""stims/images/porcupine.png"",""stims/images/rabbit.png""]"
"coact-grid-choice-audio","32","102901","0.0-32.0","p081","4","3","","","","","","3000","","","[""stims/images/dolphin.png"",""stims/images/porcupine.png"",""stims/images/wombat.png"",""stims/images/tapir.png"",""stims/images/rabbit.png"",""stims/images/alpaca.png"",""stims/images/armadillo.png"",""stims/images/elephant.png""]","","","","","4","","","stims/images/porcupine.png","","","","","","","","","","active","1","","stims/audio/its_porcupine.wav","[""stims/images/porcupine.png"",""stims/images/rabbit.png""]"
"coact-grid","33","106682","0.0-33.0","p081","4","3","","","","","","2474","","","[""stims/images/armadillo.png"",""stims/images/elephant.png"",""stims/images/tapir.png"",""stims/images/rabbit.png"",""stims/images/dolphin.png"",""stims/images/wombat.png"",""stims/images/alpaca.png"",""stims/images/porcupine.png""]","","","","","4","","","","","[2,1]","[""stims/images/tapir.png"",""stims/images/elephant.png""]","[""tapir"",""elephant""]","[""stims/audio/thats_tapir.wav"",""stims/audio/thats_elephant.wav""]","right","[""stims/images/elephant.png"",""stims/images/tapir.png""]","[""stims/audio/thats_elephant.wav"",""stims/audio/thats_tapir.wav""]","[""elephant"",""tapir""]","passive","2","","",""
"coact-grid-choice","34","108729","0.0-34.0","p081","4","3","","","","","","2045.9999999999854","","","[""stims/images/armadillo.png"",""stims/images/elephant.png"",""stims/images/tapir.png"",""stims/images/rabbit.png"",""stims/images/dolphin.png"",""stims/images/wombat.png"",""stims/images/alpaca.png"",""stims/images/porcupine.png""]","","","","","4","","","stims/images/tapir.png","","","[""stims/images/tapir.png"",""stims/images/elephant.png""]","","","","[""stims/images/elephant.png"",""stims/images/tapir.png""]","[""stims/audio/thats_elephant.wav"",""stims/audio/thats_tapir.wav""]","[""elephant"",""tapir""]","active","2","1","stims/audio/thats_tapir.wav","[""stims/images/elephant.png"",""stims/images/tapir.png""]"
"coact-grid-choice-audio","35","111739","0.0-35.0","p081","4","3","","","","","","3003","","","[""stims/images/armadillo.png"",""stims/images/elephant.png"",""stims/images/tapir.png"",""stims/images/rabbit.png"",""stims/images/dolphin.png"",""stims/images/wombat.png"",""stims/images/alpaca.png"",""stims/images/porcupine.png""]","","","","","4","","","stims/images/tapir.png","","","","","","","","","","active","2","","stims/audio/thats_tapir.wav","[""stims/images/elephant.png"",""stims/images/tapir.png""]"
"coact-grid","36","115587","0.0-36.0","p081","4","3","","","","","","2542","","","[""stims/images/elephant.png"",""stims/images/porcupine.png"",""stims/images/wombat.png"",""stims/images/tapir.png"",""stims/images/armadillo.png"",""stims/images/dolphin.png"",""stims/images/rabbit.png"",""stims/images/alpaca.png""]","","","","","4","","","","","[3,4]","[""stims/images/tapir.png"",""stims/images/armadillo.png""]","[""tapir"",""armadillo""]","[""stims/audio/its_tapir.wav"",""stims/audio/its_armadillo.wav""]","right","[""stims/images/armadillo.png"",""stims/images/tapir.png""]","[""stims/audio/its_armadillo.wav"",""stims/audio/its_tapir.wav""]","[""armadillo"",""tapir""]","passive","3","","",""
"coact-grid-choice","37","119020","0.0-37.0","p081","4","3","","","","","","3430.9999999999854","","","[""stims/images/elephant.png"",""stims/images/porcupine.png"",""stims/images/wombat.png"",""stims/images/tapir.png"",""stims/images/armadillo.png"",""stims/images/dolphin.png"",""stims/images/rabbit.png"",""stims/images/alpaca.png""]","","","","","4","","","stims/images/tapir.png","","","[""stims/images/tapir.png"",""stims/images/armadillo.png""]","","","","[""stims/images/armadillo.png"",""stims/images/tapir.png""]","[""stims/audio/its_armadillo.wav"",""stims/audio/its_tapir.wav""]","[""armadillo"",""tapir""]","active","3","1","stims/audio/its_tapir.wav","[""stims/images/armadillo.png"",""stims/images/tapir.png""]"
"coact-grid-choice-audio","38","122029","0.0-38.0","p081","4","3","","","","","","3000","","","[""stims/images/elephant.png"",""stims/images/porcupine.png"",""stims/images/wombat.png"",""stims/images/tapir.png"",""stims/images/armadillo.png"",""stims/images/dolphin.png"",""stims/images/rabbit.png"",""stims/images/alpaca.png""]","","","","","4","","","stims/images/tapir.png","","","","","","","","","","active","3","","stims/audio/its_tapir.wav","[""stims/images/armadillo.png"",""stims/images/tapir.png""]"
"coact-grid","39","126194","0.0-39.0","p081","4","3","","","","","","2858","","","[""stims/images/porcupine.png"",""stims/images/alpaca.png"",""stims/images/elephant.png"",""stims/images/armadillo.png"",""stims/images/tapir.png"",""stims/images/wombat.png"",""stims/images/rabbit.png"",""stims/images/dolphin.png""]","","","","","4","","","","","[7,4]","[""stims/images/dolphin.png"",""stims/images/tapir.png""]","[""dolphin"",""tapir""]","[""stims/audio/thats_dolphin.wav"",""stims/audio/thats_tapir.wav""]","right","[""stims/images/tapir.png"",""stims/images/dolphin.png""]","[""stims/audio/thats_tapir.wav"",""stims/audio/thats_dolphin.wav""]","[""tapir"",""dolphin""]","passive","4","","",""
"coact-grid-choice","40","130660","0.0-40.0","p081","4","3","","","","","","4465","","","[""stims/images/porcupine.png"",""stims/images/alpaca.png"",""stims/images/elephant.png"",""stims/images/armadillo.png"",""stims/images/tapir.png"",""stims/images/wombat.png"",""stims/images/rabbit.png"",""stims/images/dolphin.png""]","","","","","4","","","stims/images/dolphin.png","","","[""stims/images/dolphin.png"",""stims/images/tapir.png""]","","","","[""stims/images/tapir.png"",""stims/images/dolphin.png""]","[""stims/audio/thats_tapir.wav"",""stims/audio/thats_dolphin.wav""]","[""tapir"",""dolphin""]","active","4","1","stims/audio/thats_dolphin.wav","[""stims/images/tapir.png"",""stims/images/dolphin.png""]"
"coact-grid-choice-audio","41","133670","0.0-41.0","p081","4","3","","","","","","3000","","","[""stims/images/porcupine.png"",""stims/images/alpaca.png"",""stims/images/elephant.png"",""stims/images/armadillo.png"",""stims/images/tapir.png"",""stims/images/wombat.png"",""stims/images/rabbit.png"",""stims/images/dolphin.png""]","","","","","4","","","stims/images/dolphin.png","","","","","","","","","","active","4","","stims/audio/thats_dolphin.wav","[""stims/images/tapir.png"",""stims/images/dolphin.png""]"
"coact-grid","42","137282","0.0-42.0","p081","4","3","","","","","","2303","","","[""stims/images/armadillo.png"",""stims/images/dolphin.png"",""stims/images/elephant.png"",""stims/images/rabbit.png"",""stims/images/tapir.png"",""stims/images/wombat.png"",""stims/images/porcupine.png"",""stims/images/alpaca.png""]","","","","","4","","","","","[2,6]","[""stims/images/elephant.png"",""stims/images/porcupine.png""]","[""elephant"",""porcupine""]","[""stims/audio/thats_elephant.wav"",""stims/audio/thats_porcupine.wav""]","left","[""stims/images/elephant.png"",""stims/images/porcupine.png""]","[""stims/audio/thats_elephant.wav"",""stims/audio/thats_porcupine.wav""]","[""elephant"",""porcupine""]","passive","5","","",""
"coact-grid-choice","43","140867","0.0-43.0","p081","4","3","","","","","","3584.000000000029","","","[""stims/images/armadillo.png"",""stims/images/dolphin.png"",""stims/images/elephant.png"",""stims/images/rabbit.png"",""stims/images/tapir.png"",""stims/images/wombat.png"",""stims/images/porcupine.png"",""stims/images/alpaca.png""]","","","","","4","","","stims/images/elephant.png","","","[""stims/images/elephant.png"",""stims/images/porcupine.png""]","","","","[""stims/images/elephant.png"",""stims/images/porcupine.png""]","[""stims/audio/thats_elephant.wav"",""stims/audio/thats_porcupine.wav""]","[""elephant"",""porcupine""]","active","5","0","stims/audio/thats_elephant.wav","[""stims/images/elephant.png"",""stims/images/porcupine.png""]"
"coact-grid-choice-audio","44","143878","0.0-44.0","p081","4","3","","","","","","3000","","","[""stims/images/armadillo.png"",""stims/images/dolphin.png"",""stims/images/elephant.png"",""stims/images/rabbit.png"",""stims/images/tapir.png"",""stims/images/wombat.png"",""stims/images/porcupine.png"",""stims/images/alpaca.png""]","","","","","4","","","stims/images/elephant.png","","","","","","","","","","active","5","","stims/audio/thats_elephant.wav","[""stims/images/elephant.png"",""stims/images/porcupine.png""]"
"html-button-response","45","155449","0.0-45.0","p081","4","3","","","","","","11568","","0","","","","","","","","","","","","","","","","","","","","","","",""
"coact-test-prompt","46","157427","0.0-46.0","p081","4","3","","","","","","1976","","","[""stims/images/squirrel.png"",""stims/images/butterfly.png"",""stims/images/duck.png"",""stims/images/wolf.png"",""stims/images/cow.png"",""stims/images/frog.png"",""stims/images/horse.png"",""stims/images/cat.png""]","horse","stims/images/horse.png","familiar","practice_posttest","familiar","","","","","","","","","","","","","","","","",""
"coact-test","47","165516","0.0-47.0","p081","4","3","","","","","","172015.856","","","[""stims/images/squirrel.png"",""stims/images/butterfly.png"",""stims/images/duck.png"",""stims/images/wolf.png"",""stims/images/cow.png"",""stims/images/frog.png"",""stims/images/horse.png"",""stims/images/cat.png""]","horse","","familiar","practice_posttest","familiar","stims/audio/wheres_horse.wav","6","stims/images/horse.png","1","","","","","","","","","","","","",""
"coact-test-prompt","48","166706","0.0-48.0","p081","4","3","","","","","","1188.999999999971","","","[""stims/images/cow.png"",""stims/images/horse.png"",""stims/images/duck.png"",""stims/images/wolf.png"",""stims/images/butterfly.png"",""stims/images/squirrel.png"",""stims/images/cat.png"",""stims/images/frog.png""]","wolf","stims/images/wolf.png","familiar","practice_posttest","familiar","","","","","","","","","","","","","","","","",""
"coact-test","49","170675","0.0-49.0","p081","4","3","","","","","","177165.576","","","[""stims/images/cow.png"",""stims/images/horse.png"",""stims/images/duck.png"",""stims/images/wolf.png"",""stims/images/butterfly.png"",""stims/images/squirrel.png"",""stims/images/cat.png"",""stims/images/frog.png""]","wolf","","familiar","practice_posttest","familiar","stims/audio/find_wolf.wav","3","stims/images/wolf.png","1","","","","","","","","","","","","",""
"coact-test-prompt","50","173696","0.0-50.0","p081","4","3","","","","","","3020","","","[""stims/images/porcupine.png"",""stims/images/wombat.png"",""stims/images/alpaca.png"",""stims/images/armadillo.png"",""stims/images/rabbit.png"",""stims/images/tapir.png"",""stims/images/dolphin.png"",""stims/images/elephant.png""]","alpaca","stims/images/alpaca.png","somewhat unfamiliar","posttest","4","","","","","","","","","","","","","","","","",""
"coact-test","51","179375","0.0-51.0","p081","4","3","","","","","","185858.58666666667","","","[""stims/images/porcupine.png"",""stims/images/wombat.png"",""stims/images/alpaca.png"",""stims/images/armadillo.png"",""stims/images/rabbit.png"",""stims/images/tapir.png"",""stims/images/dolphin.png"",""stims/images/elephant.png""]","alpaca","","somewhat unfamiliar","posttest","4","stims/audio/wheres_alpaca.wav","2","stims/images/alpaca.png","1","","","","","","","","","","","","",""
"coact-test-prompt","52","180224","0.0-52.0","p081","4","3","","","","","","849","","","[""stims/images/tapir.png"",""stims/images/porcupine.png"",""stims/images/dolphin.png"",""stims/images/rabbit.png"",""stims/images/alpaca.png"",""stims/images/elephant.png"",""stims/images/armadillo.png"",""stims/images/wombat.png""]","armadillo","stims/images/armadillo.png","somewhat unfamiliar","posttest","4","","","","","","","","","","","","","","","","",""
"coact-test","53","187655","0.0-53.0","p081","4","3","","","","","","194132.05866666668","","","[""stims/images/tapir.png"",""stims/images/porcupine.png"",""stims/images/dolphin.png"",""stims/images/rabbit.png"",""stims/images/alpaca.png"",""stims/images/elephant.png"",""stims/images/armadillo.png"",""stims/images/wombat.png""]","armadillo","","somewhat unfamiliar","posttest","4","stims/audio/find_armadillo.wav","6","stims/images/armadillo.png","1","","","","","","","","","","","","",""
"coact-test-prompt","54","190390","0.0-54.0","p081","4","3","","","","","","2733","","","[""stims/images/elephant.png"",""stims/images/tapir.png"",""stims/images/alpaca.png"",""stims/images/porcupine.png"",""stims/images/wombat.png"",""stims/images/armadillo.png"",""stims/images/dolphin.png"",""stims/images/rabbit.png""]","wombat","stims/images/wombat.png","unfamiliar","posttest","4","","","","","","","","","","","","","","","","",""
"coact-test","55","198688","0.0-55.0","p081","4","3","","","","","","205154.896","","","[""stims/images/elephant.png"",""stims/images/tapir.png"",""stims/images/alpaca.png"",""stims/images/porcupine.png"",""stims/images/wombat.png"",""stims/images/armadillo.png"",""stims/images/dolphin.png"",""stims/images/rabbit.png""]","wombat","","unfamiliar","posttest","4","stims/audio/find_wombat.wav","4","stims/images/wombat.png","1","","","","","","","","","","","","",""
"coact-test-prompt","56","200372","0.0-56.0","p081","4","3","","","","","","1683","","","[""stims/images/alpaca.png"",""stims/images/armadillo.png"",""stims/images/porcupine.png"",""stims/images/wombat.png"",""stims/images/tapir.png"",""stims/images/rabbit.png"",""stims/images/elephant.png"",""stims/images/dolphin.png""]","rabbit","stims/images/rabbit.png","familiar","posttest","4","","","","","","","","","","","","","","","","",""
"coact-test","57","203883","0.0-57.0","p081","4","3","","","","","","210338.9146666667","","","[""stims/images/alpaca.png"",""stims/images/armadillo.png"",""stims/images/porcupine.png"",""stims/images/wombat.png"",""stims/images/tapir.png"",""stims/images/rabbit.png"",""stims/images/elephant.png"",""stims/images/dolphin.png""]","rabbit","","familiar","posttest","4","stims/audio/find_rabbit.wav","5","stims/images/rabbit.png","1","","","","","","","","","","","","",""
"coact-test-prompt","58","204650","0.0-58.0","p081","4","3","","","","","","766","","","[""stims/images/alpaca.png"",""stims/images/elephant.png"",""stims/images/armadillo.png"",""stims/images/tapir.png"",""stims/images/dolphin.png"",""stims/images/porcupine.png"",""stims/images/rabbit.png"",""stims/images/wombat.png""]","porcupine","stims/images/porcupine.png","somewhat familiar","posttest","4","","","","","","","","","","","","","","","","",""
"coact-test","59","208035","0.0-59.0","p081","4","3","","","","","","214487.63466666668","","","[""stims/images/alpaca.png"",""stims/images/elephant.png"",""stims/images/armadillo.png"",""stims/images/tapir.png"",""stims/images/dolphin.png"",""stims/images/porcupine.png"",""stims/images/rabbit.png"",""stims/images/wombat.png""]","porcupine","","somewhat familiar","posttest","4","stims/audio/wheres_porcupine.wav","5","stims/images/porcupine.png","1","","","","","","","","","","","","",""
"coact-test-prompt","60","210256","0.0-60.0","p081","4","3","","","","","","2218.999999999971","","","[""stims/images/rabbit.png"",""stims/images/alpaca.png"",""stims/images/porcupine.png"",""stims/images/elephant.png"",""stims/images/dolphin.png"",""stims/images/wombat.png"",""stims/images/armadillo.png"",""stims/images/tapir.png""]","dolphin","stims/images/dolphin.png","somewhat familiar","posttest","4","","","","","","","","","","","","","","","","",""
"coact-test","61","214219","0.0-61.0","p081","4","3","","","","","","220665.032","","","[""stims/images/rabbit.png"",""stims/images/alpaca.png"",""stims/images/porcupine.png"",""stims/images/elephant.png"",""stims/images/dolphin.png"",""stims/images/wombat.png"",""stims/images/armadillo.png"",""stims/images/tapir.png""]","dolphin","","somewhat familiar","posttest","4","stims/audio/wheres_dolphin.wav","4","stims/images/dolphin.png","1","","","","","","","","","","","","",""
"coact-test-prompt","62","216455","0.0-62.0","p081","4","3","","","","","","2235","","","[""stims/images/rabbit.png"",""stims/images/armadillo.png"",""stims/images/dolphin.png"",""stims/images/wombat.png"",""stims/images/porcupine.png"",""stims/images/tapir.png"",""stims/images/alpaca.png"",""stims/images/elephant.png""]","elephant","stims/images/elephant.png","familiar","posttest","4","","","","","","","","","","","","","","","","",""
"coact-test","63","220744","0.0-63.0","p081","4","3","","","","","","227183.832","","","[""stims/images/rabbit.png"",""stims/images/armadillo.png"",""stims/images/dolphin.png"",""stims/images/wombat.png"",""stims/images/porcupine.png"",""stims/images/tapir.png"",""stims/images/alpaca.png"",""stims/images/elephant.png""]","elephant","","familiar","posttest","4","stims/audio/find_elephant.wav","7","stims/images/elephant.png","1","","","","","","","","","","","","",""
"coact-test-prompt","64","223780","0.0-64.0","p081","4","3","","","","","","3034.999999999971","","","[""stims/images/dolphin.png"",""stims/images/alpaca.png"",""stims/images/porcupine.png"",""stims/images/rabbit.png"",""stims/images/wombat.png"",""stims/images/armadillo.png"",""stims/images/tapir.png"",""stims/images/elephant.png""]","tapir","stims/images/tapir.png","unfamiliar","posttest","4","","","","","","","","","","","","","","","","",""
"coact-test","65","229923","0.0-65.0","p081","4","3","","","","","","236355.50933333332","","","[""stims/images/dolphin.png"",""stims/images/alpaca.png"",""stims/images/porcupine.png"",""stims/images/rabbit.png"",""stims/images/wombat.png"",""stims/images/armadillo.png"",""stims/images/tapir.png"",""stims/images/elephant.png""]","tapir","","unfamiliar","posttest","4","stims/audio/wheres_tapir.wav","6","stims/images/tapir.png","1","","","","","","","","","","","","",""
