"trial_type","trial_index","time_elapsed","internal_node_id","subject_id","round_name","round_index","success","timeout","failed_images","failed_audio","failed_video","rt","stimulus","response","images","target","target_image","target_type","round_type","set","test_audio","choice","chosen_image","correct","choices","chosen_images","chosen_items","chosen_audio_items","first_choice_location","chosen_images_in_order","chosen_audio_in_order","chosen_items_in_order","condition","sample_num","chosen_index","chosen_audio","central_images"
"pavlovia","0","3","0.0-0.0","p100","3","2","","","","","","","","","","","","","","","","","","","","","","","","","","","","","","",""
"preload","1","311","0.0-1.0","p100","3","2","true","false","[]","[]","[]","","","","","","","","","","","","","","","","","","","","","","","","","",""
"html-button-response","2","20525","0.0-2.0","p100","3","2","","","","","","20215","","0","","","","","","","","","","","","","","","","","","","","","","",""
"coact-test-prompt","3","23153","0.0-3.0","p100","3","2","","","","","","2626.0000000000036","","","[""stims/images/cow.png"",""stims/images/butterfly.png"",""stims/images/wolf.png"",""stims/images/horse.png"",""stims/images/frog.png"",""stims/images/cat.png"",""stims/images/duck.png"",""stims/images/squirrel.png""]","horse","stims/images/horse.png","familiar","practice_pretest","familiar","","","","","","","","","","","","","","","","",""
"coact-test","4","28643","0.0-4.0","p100","3","2","","","","","","36535.07466666667","","","[""stims/images/cow.png"",""stims/images/butterfly.png"",""stims/images/wolf.png"",""stims/images/horse.png"",""stims/images/frog.png"",""stims/images/cat.png"",""stims/images/duck.png"",""stims/images/squirrel.png""]","horse","","familiar","practice_pretest","familiar","stims/audio/wheres_horse.wav","3","stims/images/horse.png","1","","","","","","","","","","","","",""
"coact-test-prompt","5","37125","0.0-5.0","p100","3","2","","","","","","8481.000000000007","","","[""stims/images/duck.png"",""stims/images/horse.png"",""stims/images/butterfly.png"",""stims/images/frog.png"",""stims/images/cat.png"",""stims/images/wolf.png"",""stims/images/cow.png"",""stims/images/squirrel.png""]","butterfly","stims/images/butterfly.png","familiar","practice_pretest","familiar","","","","","","","","","","","","","","","","",""
"coact-test","6","40191","0.0-6.0","p100","3","2","","","","","","48069.10666666667","","","[""stims/images/duck.png"",""stims/images/horse.png"",""stims/images/butterfly.png"",""stims/images/frog.png"",""stims/images/cat.png"",""stims/images/wolf.png"",""stims/images/cow.png"",""stims/images/squirrel.png""]","butterfly","","familiar","practice_pretest","familiar","stims/audio/find_butterfly.wav","2","stims/images/butterfly.png","1","","","","","","","","","","","","",""
"coact-test-prompt","7","42800","0.0-7.0","p100","3","2","","","","","","2608","","","[""stims/images/nyala.png"",""stims/images/lobster.png"",""stims/images/antelope.png"",""stims/images/bear.png"",""stims/images/armadillo.png"",""stims/images/jaguar.png"",""stims/images/tiger.png"",""stims/images/pangolin.png""]","lobster","stims/images/lobster.png","somewhat familiar","pretest","3","","","","","","","","","","","","","","","","",""
"coact-test","8","47512","0.0-8.0","p100","3","2","","","","","","55385.43200000001","","","[""stims/images/nyala.png"",""stims/images/lobster.png"",""stims/images/antelope.png"",""stims/images/bear.png"",""stims/images/armadillo.png"",""stims/images/jaguar.png"",""stims/images/tiger.png"",""stims/images/pangolin.png""]","lobster","","somewhat familiar","pretest","3","stims/audio/wheres_lobster.wav","1","stims/images/lobster.png","1","","","","","","","","","","","","",""
"coact-test-prompt","9","56361","0.0-9.0","p100","3","2","","","","","","8849","","","[""stims/images/armadillo.png"",""stims/images/jaguar.png"",""stims/images/nyala.png"",""stims/images/bear.png"",""stims/images/lobster.png"",""stims/images/antelope.png"",""stims/images/pangolin.png"",""stims/images/tiger.png""]","pangolin","stims/images/pangolin.png","unfamiliar","pretest","3","","","","","","","","","","","","","","","","",""
"coact-test","10","64769","0.0-10.0","p100","3","2","","","","","","72628.86933333334","","","[""stims/images/armadillo.png"",""stims/images/jaguar.png"",""stims/images/nyala.png"",""stims/images/bear.png"",""stims/images/lobster.png"",""stims/images/antelope.png"",""stims/images/pangolin.png"",""stims/images/tiger.png""]","pangolin","","unfamiliar","pretest","3","stims/audio/find_pangolin.wav","0","stims/images/armadillo.png","0","","","","","","","","","","","","",""
"coact-test-prompt","11","67701","0.0-11.0","p100","3","2","","","","","","2931","","","[""stims/images/lobster.png"",""stims/images/nyala.png"",""stims/images/bear.png"",""stims/images/pangolin.png"",""stims/images/antelope.png"",""stims/images/tiger.png"",""stims/images/armadillo.png"",""stims/images/jaguar.png""]","antelope","stims/images/antelope.png","somewhat unfamiliar","pretest","3","","","","","","","","","","","","","","","","",""
"coact-test","12","74406","0.0-12.0","p100","3","2","","","","","","82254.53066666667","","","[""stims/images/lobster.png"",""stims/images/nyala.png"",""stims/images/bear.png"",""stims/images/pangolin.png"",""stims/images/antelope.png"",""stims/images/tiger.png"",""stims/images/armadillo.png"",""stims/images/jaguar.png""]","antelope","","somewhat unfamiliar","pretest","3","stims/audio/wheres_antelope.wav","4","stims/images/antelope.png","1","","","","","","","","","","","","",""
"coact-test-prompt","13","74719","0.0-13.0","p100","3","2","","","","","","312","","","[""stims/images/pangolin.png"",""stims/images/jaguar.png"",""stims/images/bear.png"",""stims/images/antelope.png"",""stims/images/armadillo.png"",""stims/images/tiger.png"",""stims/images/nyala.png"",""stims/images/lobster.png""]","armadillo","stims/images/armadillo.png","somewhat unfamiliar","pretest","3","","","","","","","","","","","","","","","","",""
"coact-test","14","80393","0.0-14.0","p100","3","2","","","","","","88235.512","","","[""stims/images/pangolin.png"",""stims/images/jaguar.png"",""stims/images/bear.png"",""stims/images/antelope.png"",""stims/images/armadillo.png"",""stims/images/tiger.png"",""stims/images/nyala.png"",""stims/images/lobster.png""]","armadillo","","somewhat unfamiliar","pretest","3","stims/audio/find_armadillo.wav","6","stims/images/nyala.png","0","","","","","","","","","","","","",""
"coact-test-prompt","15","87205","0.0-15.0","p100","3","2","","","","","","6811","","","[""stims/images/tiger.png"",""stims/images/jaguar.png"",""stims/images/lobster.png"",""stims/images/bear.png"",""stims/images/armadillo.png"",""stims/images/nyala.png"",""stims/images/antelope.png"",""stims/images/pangolin.png""]","bear","stims/images/bear.png","familiar","pretest","3","","","","","","","","","","","","","","","","",""
"coact-test","16","90383","0.0-16.0","p100","3","2","","","","","","98214.02933333334","","","[""stims/images/tiger.png"",""stims/images/jaguar.png"",""stims/images/lobster.png"",""stims/images/bear.png"",""stims/images/armadillo.png"",""stims/images/nyala.png"",""stims/images/antelope.png"",""stims/images/pangolin.png""]","bear","","familiar","pretest","3","stims/audio/find_bear.wav","3","stims/images/bear.png","1","","","","","","","","","","","","",""
"coact-test-prompt","17","91997","0.0-17.0","p100","3","2","","","","","","1613","","","[""stims/images/bear.png"",""stims/images/nyala.png"",""stims/images/jaguar.png"",""stims/images/antelope.png"",""stims/images/lobster.png"",""stims/images/armadillo.png"",""stims/images/pangolin.png"",""stims/images/tiger.png""]","jaguar","stims/images/jaguar.png","somewhat familiar","pretest","3","","","","","","","","","","","","","","","","",""
"coact-test","18","101929","0.0-18.0","p100","3","2","","","","","","109755.23466666669","","","[""stims/images/bear.png"",""stims/images/nyala.png"",""stims/images/jaguar.png"",""stims/images/antelope.png"",""stims/images/lobster.png"",""stims/images/armadillo.png"",""stims/images/pangolin.png"",""stims/images/tiger.png""]","jaguar","","somewhat familiar","pretest","3","stims/audio/wheres_jaguar.wav","5","stims/images/armadillo.png","0","","","","","","","","","","","","",""
"coact-test-prompt","19","106722","0.0-19.0","p100","3","2","","","","","","4791.999999999985","","","[""stims/images/bear.png"",""stims/images/nyala.png"",""stims/images/antelope.png"",""stims/images/armadillo.png"",""stims/images/jaguar.png"",""stims/images/pangolin.png"",""stims/images/tiger.png"",""stims/images/lobster.png""]","tiger","stims/images/tiger.png","familiar","pretest","3","","","","","","","","","","","","","","","","",""
"coact-test","20","111541","0.0-20.0","p100","3","2","","","","","","119353.50933333335","","","[""stims/images/bear.png"",""stims/images/nyala.png"",""stims/images/antelope.png"",""stims/images/armadillo.png"",""stims/images/jaguar.png"",""stims/images/pangolin.png"",""stims/images/tiger.png"",""stims/images/lobster.png""]","tiger","","familiar","pretest","3","stims/audio/find_tiger.wav","6","stims/images/tiger.png","1","","","","","","","","","","","","",""
"coact-test-prompt","21","112367","0.0-21.0","p100","3","2","","","","","","825","","","[""stims/images/nyala.png"",""stims/images/armadillo.png"",""stims/images/jaguar.png"",""stims/images/antelope.png"",""stims/images/bear.png"",""stims/images/lobster.png"",""stims/images/tiger.png"",""stims/images/pangolin.png""]","nyala","stims/images/nyala.png","unfamiliar","pretest","3","","","","","","","","","","","","","","","","",""
"coact-test","22","118557","0.0-22.0","p100","3","2","","","","","","126362.86666666668","","","[""stims/images/nyala.png"",""stims/images/armadillo.png"",""stims/images/jaguar.png"",""stims/images/antelope.png"",""stims/images/bear.png"",""stims/images/lobster.png"",""stims/images/tiger.png"",""stims/images/pangolin.png""]","nyala","","unfamiliar","pretest","3","stims/audio/wheres_nyala.wav","3","stims/images/antelope.png","0","","","","","","","","","","","","",""
"html-button-response","23","128210","0.0-23.0","p100","3","2","","","","","","9652","","0","","","","","","","","","","","","","","","","","","","","","","",""
"coact-grid","24","133730","0.0-24.0","p100","3","2","","","","","","4211","","","[""stims/images/duck.png"",""stims/images/squirrel.png"",""stims/images/frog.png"",""stims/images/cat.png"",""stims/images/butterfly.png"",""stims/images/cow.png"",""stims/images/wolf.png"",""stims/images/horse.png""]","","","","","familiar","","","","","[1,5]","[""stims/images/squirrel.png"",""stims/images/cow.png""]","[""squirrel"",""cow""]","[""stims/audio/its_squirrel.wav"",""stims/audio/its_cow.wav""]","left","[""stims/images/squirrel.png"",""stims/images/cow.png""]","[""stims/audio/its_squirrel.wav"",""stims/audio/its_cow.wav""]","[""squirrel"",""cow""]","passive","0","","",""
"coact-grid-choice","25","136318","0.0-25.0","p100","3","2","","","","","","2586","","","[""stims/images/duck.png"",""stims/images/squirrel.png"",""stims/images/frog.png"",""stims/images/cat.png"",""stims/images/butterfly.png"",""stims/images/cow.png"",""stims/images/wolf.png"",""stims/images/horse.png""]","","","","","familiar","","","stims/images/cow.png","","","[""stims/images/squirrel.png"",""stims/images/cow.png""]","","","","[""stims/images/squirrel.png"",""stims/images/cow.png""]","[""stims/audio/its_squirrel.wav"",""stims/audio/its_cow.wav""]","[""squirrel"",""cow""]","passive","0","1","stims/audio/its_cow.wav","[""stims/images/squirrel.png"",""stims/images/cow.png""]"
"coact-grid-choice-audio","26","139330","0.0-26.0","p100","3","2","","","","","","3003","","","[""stims/images/duck.png"",""stims/images/squirrel.png"",""stims/images/frog.png"",""stims/images/cat.png"",""stims/images/butterfly.png"",""stims/images/cow.png"",""stims/images/wolf.png"",""stims/images/horse.png""]","","","","","familiar","","","stims/images/cow.png","","","","","","","","","","passive","0","","stims/audio/its_cow.wav","[""stims/images/squirrel.png"",""stims/images/cow.png""]"
"coact-grid","27","143393","0.0-27.0","p100","3","2","","","","","","2757","","","[""stims/images/armadillo.png"",""stims/images/nyala.png"",""stims/images/tiger.png"",""stims/images/antelope.png"",""stims/images/bear.png"",""stims/images/pangolin.png"",""stims/images/jaguar.png"",""stims/images/lobster.png""]","","","","","3","","","","","[7,2]","[""stims/images/lobster.png"",""stims/images/tiger.png""]","[""lobster"",""tiger""]","[""stims/audio/its_lobster.wav"",""stims/audio/its_tiger.wav""]","left","[""stims/images/lobster.png"",""stims/images/tiger.png""]","[""stims/audio/its_lobster.wav"",""stims/audio/its_tiger.wav""]","[""lobster"",""tiger""]","passive","0","","",""
"coact-grid-choice","28","145941","0.0-28.0","p100","3","2","","","","","","2548","","","[""stims/images/armadillo.png"",""stims/images/nyala.png"",""stims/images/tiger.png"",""stims/images/antelope.png"",""stims/images/bear.png"",""stims/images/pangolin.png"",""stims/images/jaguar.png"",""stims/images/lobster.png""]","","","","","3","","","stims/images/lobster.png","","","[""stims/images/lobster.png"",""stims/images/tiger.png""]","","","","[""stims/images/lobster.png"",""stims/images/tiger.png""]","[""stims/audio/its_lobster.wav"",""stims/audio/its_tiger.wav""]","[""lobster"",""tiger""]","passive","0","0","stims/audio/its_lobster.wav","[""stims/images/lobster.png"",""stims/images/tiger.png""]"
"coact-grid-choice-audio","29","148950","0.0-29.0","p100","3","2","","","","","","3003","","","[""stims/images/armadillo.png"",""stims/images/nyala.png"",""stims/images/tiger.png"",""stims/images/antelope.png"",""stims/images/bear.png"",""stims/images/pangolin.png"",""stims/images/jaguar.png"",""stims/images/lobster.png""]","","","","","3","","","stims/images/lobster.png","","","","","","","","","","passive","0","","stims/audio/its_lobster.wav","[""stims/images/lobster.png"",""stims/images/tiger.png""]"
"coact-grid","30","152571","0.0-30.0","p100","3","2","","","","","","2314","","","[""stims/images/bear.png"",""stims/images/jaguar.png"",""stims/images/pangolin.png"",""stims/images/lobster.png"",""stims/images/antelope.png"",""stims/images/nyala.png"",""stims/images/armadillo.png"",""stims/images/tiger.png""]","","","","","3","","","","","[6,2]","[""stims/images/armadillo.png"",""stims/images/pangolin.png""]","[""armadillo"",""pangolin""]","[""stims/audio/its_armadillo.wav"",""stims/audio/its_pangolin.wav""]","right","[""stims/images/pangolin.png"",""stims/images/armadillo.png""]","[""stims/audio/its_pangolin.wav"",""stims/audio/its_armadillo.wav""]","[""pangolin"",""armadillo""]","passive","1","","",""
"coact-grid-choice","31","157864","0.0-31.0","p100","3","2","","","","","","5292","","","[""stims/images/bear.png"",""stims/images/jaguar.png"",""stims/images/pangolin.png"",""stims/images/lobster.png"",""stims/images/antelope.png"",""stims/images/nyala.png"",""stims/images/armadillo.png"",""stims/images/tiger.png""]","","","","","3","","","stims/images/pangolin.png","","","[""stims/images/armadillo.png"",""stims/images/pangolin.png""]","","","","[""stims/images/pangolin.png"",""stims/images/armadillo.png""]","[""stims/audio/its_pangolin.wav"",""stims/audio/its_armadillo.wav""]","[""pangolin"",""armadillo""]","passive","1","0","stims/audio/its_pangolin.wav","[""stims/images/pangolin.png"",""stims/images/armadillo.png""]"
"coact-grid-choice-audio","32","160872","0.0-32.0","p100","3","2","","","","","","3003","","","[""stims/images/bear.png"",""stims/images/jaguar.png"",""stims/images/pangolin.png"",""stims/images/lobster.png"",""stims/images/antelope.png"",""stims/images/nyala.png"",""stims/images/armadillo.png"",""stims/images/tiger.png""]","","","","","3","","","stims/images/pangolin.png","","","","","","","","","","passive","1","","stims/audio/its_pangolin.wav","[""stims/images/pangolin.png"",""stims/images/armadillo.png""]"
"coact-grid","33","165654","0.0-33.0","p100","3","2","","","","","","3475.000000000029","","","[""stims/images/armadillo.png"",""stims/images/nyala.png"",""stims/images/pangolin.png"",""stims/images/lobster.png"",""stims/images/bear.png"",""stims/images/antelope.png"",""stims/images/tiger.png"",""stims/images/jaguar.png""]","","","","","3","","","","","[7,4]","[""stims/images/jaguar.png"",""stims/images/bear.png""]","[""jaguar"",""bear""]","[""stims/audio/its_jaguar.wav"",""stims/audio/its_bear.wav""]","left","[""stims/images/jaguar.png"",""stims/images/bear.png""]","[""stims/audio/its_jaguar.wav"",""stims/audio/its_bear.wav""]","[""jaguar"",""bear""]","passive","2","","",""
"coact-grid-choice","34","172523","0.0-34.0","p100","3","2","","","","","","6868","","","[""stims/images/armadillo.png"",""stims/images/nyala.png"",""stims/images/pangolin.png"",""stims/images/lobster.png"",""stims/images/bear.png"",""stims/images/antelope.png"",""stims/images/tiger.png"",""stims/images/jaguar.png""]","","","","","3","","","stims/images/bear.png","","","[""stims/images/jaguar.png"",""stims/images/bear.png""]","","","","[""stims/images/jaguar.png"",""stims/images/bear.png""]","[""stims/audio/its_jaguar.wav"",""stims/audio/its_bear.wav""]","[""jaguar"",""bear""]","passive","2","1","stims/audio/its_bear.wav","[""stims/images/jaguar.png"",""stims/images/bear.png""]"
"coact-grid-choice-audio","35","175531","0.0-35.0","p100","3","2","","","","","","3000","","","[""stims/images/armadillo.png"",""stims/images/nyala.png"",""stims/images/pangolin.png"",""stims/images/lobster.png"",""stims/images/bear.png"",""stims/images/antelope.png"",""stims/images/tiger.png"",""stims/images/jaguar.png""]","","","","","3","","","stims/images/bear.png","","","","","","","","","","passive","2","","stims/audio/its_bear.wav","[""stims/images/jaguar.png"",""stims/images/bear.png""]"
"coact-grid","36","179456","0.0-36.0","p100","3","2","","","","","","2618","","","[""stims/images/armadillo.png"",""stims/images/pangolin.png"",""stims/images/antelope.png"",""stims/images/lobster.png"",""stims/images/jaguar.png"",""stims/images/nyala.png"",""stims/images/bear.png"",""stims/images/tiger.png""]","","","","","3","","","","","[4,7]","[""stims/images/jaguar.png"",""stims/images/tiger.png""]","[""jaguar"",""tiger""]","[""stims/audio/thats_jaguar.wav"",""stims/audio/thats_tiger.wav""]","right","[""stims/images/tiger.png"",""stims/images/jaguar.png""]","[""stims/audio/thats_tiger.wav"",""stims/audio/thats_jaguar.wav""]","[""tiger"",""jaguar""]","passive","3","","",""
"coact-grid-choice","37","182195","0.0-37.0","p100","3","2","","","","","","2739","","","[""stims/images/armadillo.png"",""stims/images/pangolin.png"",""stims/images/antelope.png"",""stims/images/lobster.png"",""stims/images/jaguar.png"",""stims/images/nyala.png"",""stims/images/bear.png"",""stims/images/tiger.png""]","","","","","3","","","stims/images/jaguar.png","","","[""stims/images/jaguar.png"",""stims/images/tiger.png""]","","","","[""stims/images/tiger.png"",""stims/images/jaguar.png""]","[""stims/audio/thats_tiger.wav"",""stims/audio/thats_jaguar.wav""]","[""tiger"",""jaguar""]","passive","3","1","stims/audio/thats_jaguar.wav","[""stims/images/tiger.png"",""stims/images/jaguar.png""]"
"coact-grid-choice-audio","38","185203","0.0-38.0","p100","3","2","","","","","","3000","","","[""stims/images/armadillo.png"",""stims/images/pangolin.png"",""stims/images/antelope.png"",""stims/images/lobster.png"",""stims/images/jaguar.png"",""stims/images/nyala.png"",""stims/images/bear.png"",""stims/images/tiger.png""]","","","","","3","","","stims/images/jaguar.png","","","","","","","","","","passive","3","","stims/audio/thats_jaguar.wav","[""stims/images/tiger.png"",""stims/images/jaguar.png""]"
"coact-grid","39","202735","0.0-39.0","p100","3","2","","","","","","16226","","","[""stims/images/tiger.png"",""stims/images/antelope.png"",""stims/images/bear.png"",""stims/images/armadillo.png"",""stims/images/pangolin.png"",""stims/images/jaguar.png"",""stims/images/nyala.png"",""stims/images/lobster.png""]","","","","","3","","","","","[2,4]","[""stims/images/bear.png"",""stims/images/pangolin.png""]","[""bear"",""pangolin""]","[""stims/audio/thats_bear.wav"",""stims/audio/thats_pangolin.wav""]","right","[""stims/images/pangolin.png"",""stims/images/bear.png""]","[""stims/audio/thats_pangolin.wav"",""stims/audio/thats_bear.wav""]","[""pangolin"",""bear""]","passive","4","","",""
"coact-grid-choice","40","204375","0.0-40.0","p100","3","2","","","","","","1639","","","[""stims/images/tiger.png"",""stims/images/antelope.png"",""stims/images/bear.png"",""stims/images/armadillo.png"",""stims/images/pangolin.png"",""stims/images/jaguar.png"",""stims/images/nyala.png"",""stims/images/lobster.png""]","","","","","3","","","stims/images/bear.png","","","[""stims/images/bear.png"",""stims/images/pangolin.png""]","","","","[""stims/images/pangolin.png"",""stims/images/bear.png""]","[""stims/audio/thats_pangolin.wav"",""stims/audio/thats_bear.wav""]","[""pangolin"",""bear""]","passive","4","1","stims/audio/thats_bear.wav","[""stims/images/pangolin.png"",""stims/images/bear.png""]"
"coact-grid-choice-audio","41","207384","0.0-41.0","p100","3","2","","","","","","3000","","","[""stims/images/tiger.png"",""stims/images/antelope.png"",""stims/images/bear.png"",""stims/images/armadillo.png"",""stims/images/pangolin.png"",""stims/images/jaguar.png"",""stims/images/nyala.png"",""stims/images/lobster.png""]","","","","","3","","","stims/images/bear.png","","","","","","","","","","passive","4","","stims/audio/thats_bear.wav","[""stims/images/pangolin.png"",""stims/images/bear.png""]"
"coact-grid","42","215986","0.0-42.0","p100","3","2","","","","","","7297","","","[""stims/images/tiger.png"",""stims/images/pangolin.png"",""stims/images/bear.png"",""stims/images/lobster.png"",""stims/images/jaguar.png"",""stims/images/armadillo.png"",""stims/images/antelope.png"",""stims/images/nyala.png""]","","","","","3","","","","","[4,3]","[""stims/images/jaguar.png"",""stims/images/lobster.png""]","[""jaguar"",""lobster""]","[""stims/audio/thats_jaguar.wav"",""stims/audio/thats_lobster.wav""]","left","[""stims/images/jaguar.png"",""stims/images/lobster.png""]","[""stims/audio/thats_jaguar.wav"",""stims/audio/thats_lobster.wav""]","[""jaguar"",""lobster""]","passive","5","","",""
"coact-grid-choice","43","218416","0.0-43.0","p100","3","2","","","","","","2429","","","[""stims/images/tiger.png"",""stims/images/pangolin.png"",""stims/images/bear.png"",""stims/images/lobster.png"",""stims/images/jaguar.png"",""stims/images/armadillo.png"",""stims/images/antelope.png"",""stims/images/nyala.png""]","","","","","3","","","stims/images/lobster.png","","","[""stims/images/jaguar.png"",""stims/images/lobster.png""]","","","","[""stims/images/jaguar.png"",""stims/images/lobster.png""]","[""stims/audio/thats_jaguar.wav"",""stims/audio/thats_lobster.wav""]","[""jaguar"",""lobster""]","passive","5","1","stims/audio/thats_lobster.wav","[""stims/images/jaguar.png"",""stims/images/lobster.png""]"
"coact-grid-choice-audio","44","221426","0.0-44.0","p100","3","2","","","","","","3000","","","[""stims/images/tiger.png"",""stims/images/pangolin.png"",""stims/images/bear.png"",""stims/images/lobster.png"",""stims/images/jaguar.png"",""stims/images/armadillo.png"",""stims/images/antelope.png"",""stims/images/nyala.png""]","","","","","3","","","stims/images/lobster.png","","","","","","","","","","passive","5","","stims/audio/thats_lobster.wav","[""stims/images/jaguar.png"",""stims/images/lobster.png""]"
"html-button-response","45","228467","0.0-45.0","p100","3","2","","","","","","7039","","0","","","","","","","","","","","","","","","","","","","","","","",""
"coact-test-prompt","46","232506","0.0-46.0","p100","3","2","","","","","","4038","","","[""stims/images/wolf.png"",""stims/images/horse.png"",""stims/images/frog.png"",""stims/images/butterfly.png"",""stims/images/squirrel.png"",""stims/images/cow.png"",""stims/images/cat.png"",""stims/images/duck.png""]","horse","stims/images/horse.png","familiar","practice_posttest","familiar","","","","","","","","","","","","","","","","",""
"coact-test","47","237740","0.0-47.0","p100","3","2","","","","","","245431.72800000003","","","[""stims/images/wolf.png"",""stims/images/horse.png"",""stims/images/frog.png"",""stims/images/butterfly.png"",""stims/images/squirrel.png"",""stims/images/cow.png"",""stims/images/cat.png"",""stims/images/duck.png""]","horse","","familiar","practice_posttest","familiar","stims/audio/find_horse.wav","1","stims/images/horse.png","1","","","","","","","","","","","","",""
"coact-test-prompt","48","238126","0.0-48.0","p100","3","2","","","","","","384.0000000000291","","","[""stims/images/cat.png"",""stims/images/frog.png"",""stims/images/wolf.png"",""stims/images/butterfly.png"",""stims/images/horse.png"",""stims/images/cow.png"",""stims/images/duck.png"",""stims/images/squirrel.png""]","butterfly","stims/images/butterfly.png","familiar","practice_posttest","familiar","","","","","","","","","","","","","","","","",""
"coact-test","49","241626","0.0-49.0","p100","3","2","","","","","","249314.10933333333","","","[""stims/images/cat.png"",""stims/images/frog.png"",""stims/images/wolf.png"",""stims/images/butterfly.png"",""stims/images/horse.png"",""stims/images/cow.png"",""stims/images/duck.png"",""stims/images/squirrel.png""]","butterfly","","familiar","practice_posttest","familiar","stims/audio/find_butterfly.wav","3","stims/images/butterfly.png","1","","","","","","","","","","","","",""
"coact-test-prompt","50","244847","0.0-50.0","p100","3","2","","","","","","3220","","","[""stims/images/jaguar.png"",""stims/images/nyala.png"",""stims/images/bear.png"",""stims/images/lobster.png"",""stims/images/armadillo.png"",""stims/images/tiger.png"",""stims/images/pangolin.png"",""stims/images/antelope.png""]","tiger","stims/images/tiger.png","familiar","posttest","3","","","","","","","","","","","","","","","","",""
"coact-test","51","249398","0.0-51.0","p100","3","2","","","","","","257078.38666666663","","","[""stims/images/jaguar.png"",""stims/images/nyala.png"",""stims/images/bear.png"",""stims/images/lobster.png"",""stims/images/armadillo.png"",""stims/images/tiger.png"",""stims/images/pangolin.png"",""stims/images/antelope.png""]","tiger","","familiar","posttest","3","stims/audio/find_tiger.wav","5","stims/images/tiger.png","1","","","","","","","","","","","","",""
"coact-test-prompt","52","250789","0.0-52.0","p100","3","2","","","","","","1390.000000000029","","","[""stims/images/tiger.png"",""stims/images/pangolin.png"",""stims/images/nyala.png"",""stims/images/lobster.png"",""stims/images/antelope.png"",""stims/images/armadillo.png"",""stims/images/jaguar.png"",""stims/images/bear.png""]","bear","stims/images/bear.png","familiar","posttest","3","","","","","","","","","","","","","","","","",""
"coact-test","53","257746","0.0-53.0","p100","3","2","","","","","","265419.44533333334","","","[""stims/images/tiger.png"",""stims/images/pangolin.png"",""stims/images/nyala.png"",""stims/images/lobster.png"",""stims/images/antelope.png"",""stims/images/armadillo.png"",""stims/images/jaguar.png"",""stims/images/bear.png""]","bear","","familiar","posttest","3","stims/audio/wheres_bear.wav","7","stims/images/bear.png","1","","","","","","","","","","","","",""
"coact-test-prompt","54","259031","0.0-54.0","p100","3","2","","","","","","1284","","","[""stims/images/lobster.png"",""stims/images/pangolin.png"",""stims/images/jaguar.png"",""stims/images/antelope.png"",""stims/images/tiger.png"",""stims/images/bear.png"",""stims/images/nyala.png"",""stims/images/armadillo.png""]","jaguar","stims/images/jaguar.png","somewhat familiar","posttest","3","","","","","","","","","","","","","","","","",""
"coact-test","55","265552","0.0-55.0","p100","3","2","","","","","","273218.2026666667","","","[""stims/images/lobster.png"",""stims/images/pangolin.png"",""stims/images/jaguar.png"",""stims/images/antelope.png"",""stims/images/tiger.png"",""stims/images/bear.png"",""stims/images/nyala.png"",""stims/images/armadillo.png""]","jaguar","","somewhat familiar","posttest","3","stims/audio/wheres_jaguar.wav","2","stims/images/jaguar.png","1","","","","","","","","","","","","",""
"coact-test-prompt","56","265600","0.0-56.0","p100","3","2","","","","","","48","","","[""stims/images/bear.png"",""stims/images/tiger.png"",""stims/images/jaguar.png"",""stims/images/lobster.png"",""stims/images/pangolin.png"",""stims/images/armadillo.png"",""stims/images/antelope.png"",""stims/images/nyala.png""]","armadillo","stims/images/armadillo.png","somewhat unfamiliar","posttest","3","","","","","","","","","","","","","","","","",""
"coact-test","57","270429","0.0-57.0","p100","3","2","","","","","","278089.6373333333","","","[""stims/images/bear.png"",""stims/images/tiger.png"",""stims/images/jaguar.png"",""stims/images/lobster.png"",""stims/images/pangolin.png"",""stims/images/armadillo.png"",""stims/images/antelope.png"",""stims/images/nyala.png""]","armadillo","","somewhat unfamiliar","posttest","3","stims/audio/find_armadillo.wav","4","stims/images/pangolin.png","0","","","","","","","","","","","","",""
"coact-test-prompt","58","271654","0.0-58.0","p100","3","2","","","","","","1224","","","[""stims/images/bear.png"",""stims/images/nyala.png"",""stims/images/armadillo.png"",""stims/images/pangolin.png"",""stims/images/lobster.png"",""stims/images/tiger.png"",""stims/images/antelope.png"",""stims/images/jaguar.png""]","lobster","stims/images/lobster.png","somewhat familiar","posttest","3","","","","","","","","","","","","","","","","",""
"coact-test","59","276138","0.0-59.0","p100","3","2","","","","","","283792.57866666664","","","[""stims/images/bear.png"",""stims/images/nyala.png"",""stims/images/armadillo.png"",""stims/images/pangolin.png"",""stims/images/lobster.png"",""stims/images/tiger.png"",""stims/images/antelope.png"",""stims/images/jaguar.png""]","lobster","","somewhat familiar","posttest","3","stims/audio/wheres_lobster.wav","4","stims/images/lobster.png","1","","","","","","","","","","","","",""
"coact-test-prompt","60","276629","0.0-60.0","p100","3","2","","","","","","489","","","[""stims/images/nyala.png"",""stims/images/bear.png"",""stims/images/jaguar.png"",""stims/images/lobster.png"",""stims/images/antelope.png"",""stims/images/armadillo.png"",""stims/images/tiger.png"",""stims/images/pangolin.png""]","nyala","stims/images/nyala.png","unfamiliar","posttest","3","","","","","","","","","","","","","","","","",""
"coact-test","61","281604","0.0-61.0","p100","3","2","","","","","","289253.60533333337","","","[""stims/images/nyala.png"",""stims/images/bear.png"",""stims/images/jaguar.png"",""stims/images/lobster.png"",""stims/images/antelope.png"",""stims/images/armadillo.png"",""stims/images/tiger.png"",""stims/images/pangolin.png""]","nyala","","unfamiliar","posttest","3","stims/audio/wheres_nyala.wav","0","stims/images/nyala.png","1","","","","","","","","","","","","",""
"coact-test-prompt","62","284355","0.0-62.0","p100","3","2","","","","","","2750","","","[""stims/images/nyala.png"",""stims/images/armadillo.png"",""stims/images/lobster.png"",""stims/images/antelope.png"",""stims/images/jaguar.png"",""stims/images/bear.png"",""stims/images/tiger.png"",""stims/images/pangolin.png""]","antelope","stims/images/antelope.png","somewhat unfamiliar","posttest","3","","","","","","","","","","","","","","","","",""
"coact-test","63","296270","0.0-63.0","p100","3","2","","","","","","303911.88","","","[""stims/images/nyala.png"",""stims/images/armadillo.png"",""stims/images/lobster.png"",""stims/images/antelope.png"",""stims/images/jaguar.png"",""stims/images/bear.png"",""stims/images/tiger.png"",""stims/images/pangolin.png""]","antelope","","somewhat unfamiliar","posttest","3","stims/audio/find_antelope.wav","1","stims/images/armadillo.png","0","","","","","","","","","","","","",""
"coact-test-prompt","64","300861","0.0-64.0","p100","3","2","","","","","","4591","","","[""stims/images/pangolin.png"",""stims/images/nyala.png"",""stims/images/jaguar.png"",""stims/images/armadillo.png"",""stims/images/tiger.png"",""stims/images/antelope.png"",""stims/images/bear.png"",""stims/images/lobster.png""]","pangolin","stims/images/pangolin.png","unfamiliar","posttest","3","","","","","","","","","","","","","","","","",""
"coact-test","65","308166","0.0-65.0","p100","3","2","","","","","","315792.37333333335","","","[""stims/images/pangolin.png"",""stims/images/nyala.png"",""stims/images/jaguar.png"",""stims/images/armadillo.png"",""stims/images/tiger.png"",""stims/images/antelope.png"",""stims/images/bear.png"",""stims/images/lobster.png""]","pangolin","","unfamiliar","posttest","3","stims/audio/find_pangolin.wav","0","stims/images/pangolin.png","1","","","","","","","","","","","","",""
