"trial_type","trial_index","time_elapsed","internal_node_id","subject_id","round_name","round_index","success","timeout","failed_images","failed_audio","failed_video","rt","stimulus","response","images","target","target_image","target_type","round_type","set","test_audio","choice","chosen_image","correct","choices","chosen_images","chosen_items","chosen_audio_items","first_choice_location","chosen_images_in_order","chosen_audio_in_order","chosen_items_in_order","condition","sample_num","chosen_index","chosen_audio","central_images"
"pavlovia","0","3","0.0-0.0","p111","3","2","","","","","","","","","","","","","","","","","","","","","","","","","","","","","","",""
"preload","1","141","0.0-1.0","p111","3","2","true","false","[]","[]","[]","","","","","","","","","","","","","","","","","","","","","","","","","",""
"html-button-response","2","4425","0.0-2.0","p111","3","2","","","","","","4284.000000000002","","0","","","","","","","","","","","","","","","","","","","","","","",""
"coact-test-prompt","3","6792","0.0-3.0","p111","3","2","","","","","","2366","","","[""stims/images/duck.png"",""stims/images/squirrel.png"",""stims/images/frog.png"",""stims/images/horse.png"",""stims/images/cat.png"",""stims/images/butterfly.png"",""stims/images/wolf.png"",""stims/images/cow.png""]","squirrel","stims/images/squirrel.png","familiar","practice_pretest","familiar","","","","","","","","","","","","","","","","",""
"coact-test","4","10820","0.0-4.0","p111","3","2","","","","","","15038.285333333333","","","[""stims/images/duck.png"",""stims/images/squirrel.png"",""stims/images/frog.png"",""stims/images/horse.png"",""stims/images/cat.png"",""stims/images/butterfly.png"",""stims/images/wolf.png"",""stims/images/cow.png""]","squirrel","","familiar","practice_pretest","familiar","stims/audio/find_squirrel.wav","1","stims/images/squirrel.png","1","","","","","","","","","","","","",""
"coact-test-prompt","5","11895","0.0-5.0","p111","3","2","","","","","","1073.9999999999982","","","[""stims/images/frog.png"",""stims/images/duck.png"",""stims/images/butterfly.png"",""stims/images/cat.png"",""stims/images/squirrel.png"",""stims/images/wolf.png"",""stims/images/horse.png"",""stims/images/cow.png""]","wolf","stims/images/wolf.png","familiar","practice_pretest","familiar","","","","","","","","","","","","","","","","",""
"coact-test","6","17907","0.0-6.0","p111","3","2","","","","","","22121.184","","","[""stims/images/frog.png"",""stims/images/duck.png"",""stims/images/butterfly.png"",""stims/images/cat.png"",""stims/images/squirrel.png"",""stims/images/wolf.png"",""stims/images/horse.png"",""stims/images/cow.png""]","wolf","","familiar","practice_pretest","familiar","stims/audio/wheres_wolf.wav","5","stims/images/wolf.png","1","","","","","","","","","","","","",""
"coact-test-prompt","7","19208","0.0-7.0","p111","3","2","","","","","","1299.0000000000036","","","[""stims/images/lobster.png"",""stims/images/pangolin.png"",""stims/images/tiger.png"",""stims/images/antelope.png"",""stims/images/echidna.png"",""stims/images/raccoon.png"",""stims/images/armadillo.png"",""stims/images/zebra.png""]","tiger","stims/images/tiger.png","familiar","pretest","3","","","","","","","","","","","","","","","","",""
"coact-test","8","23365","0.0-8.0","p111","3","2","","","","","","27571.872","","","[""stims/images/lobster.png"",""stims/images/pangolin.png"",""stims/images/tiger.png"",""stims/images/antelope.png"",""stims/images/echidna.png"",""stims/images/raccoon.png"",""stims/images/armadillo.png"",""stims/images/zebra.png""]","tiger","","familiar","pretest","3","stims/audio/wheres_tiger.wav","2","stims/images/tiger.png","1","","","","","","","","","","","","",""
"coact-test-prompt","9","25371","0.0-9.0","p111","3","2","","","","","","2004","","","[""stims/images/tiger.png"",""stims/images/armadillo.png"",""stims/images/lobster.png"",""stims/images/echidna.png"",""stims/images/pangolin.png"",""stims/images/antelope.png"",""stims/images/raccoon.png"",""stims/images/zebra.png""]","zebra","stims/images/zebra.png","familiar","pretest","3","","","","","","","","","","","","","","","","",""
"coact-test","10","29405","0.0-10.0","p111","3","2","","","","","","33605.70933333333","","","[""stims/images/tiger.png"",""stims/images/armadillo.png"",""stims/images/lobster.png"",""stims/images/echidna.png"",""stims/images/pangolin.png"",""stims/images/antelope.png"",""stims/images/raccoon.png"",""stims/images/zebra.png""]","zebra","","familiar","pretest","3","stims/audio/wheres_zebra.wav","7","stims/images/zebra.png","1","","","","","","","","","","","","",""
"coact-test-prompt","11","30415","0.0-11.0","p111","3","2","","","","","","1007","","","[""stims/images/lobster.png"",""stims/images/antelope.png"",""stims/images/zebra.png"",""stims/images/tiger.png"",""stims/images/pangolin.png"",""stims/images/raccoon.png"",""stims/images/echidna.png"",""stims/images/armadillo.png""]","echidna","stims/images/echidna.png","unfamiliar","pretest","3","","","","","","","","","","","","","","","","",""
"coact-test","12","38420","0.0-12.0","p111","3","2","","","","","","42615.666666666664","","","[""stims/images/lobster.png"",""stims/images/antelope.png"",""stims/images/zebra.png"",""stims/images/tiger.png"",""stims/images/pangolin.png"",""stims/images/raccoon.png"",""stims/images/echidna.png"",""stims/images/armadillo.png""]","echidna","","unfamiliar","pretest","3","stims/audio/find_echidna.wav","4","stims/images/pangolin.png","0","","","","","","","","","","","","",""
"coact-test-prompt","13","39269","0.0-13.0","p111","3","2","","","","","","848","","","[""stims/images/raccoon.png"",""stims/images/echidna.png"",""stims/images/pangolin.png"",""stims/images/lobster.png"",""stims/images/zebra.png"",""stims/images/tiger.png"",""stims/images/antelope.png"",""stims/images/armadillo.png""]","pangolin","stims/images/pangolin.png","unfamiliar","pretest","3","","","","","","","","","","","","","","","","",""
"coact-test","14","48892","0.0-14.0","p111","3","2","","","","","","53079.81333333333","","","[""stims/images/raccoon.png"",""stims/images/echidna.png"",""stims/images/pangolin.png"",""stims/images/lobster.png"",""stims/images/zebra.png"",""stims/images/tiger.png"",""stims/images/antelope.png"",""stims/images/armadillo.png""]","pangolin","","unfamiliar","pretest","3","stims/audio/find_pangolin.wav","6","stims/images/antelope.png","0","","","","","","","","","","","","",""
"coact-test-prompt","15","49975","0.0-15.0","p111","3","2","","","","","","1082","","","[""stims/images/armadillo.png"",""stims/images/antelope.png"",""stims/images/pangolin.png"",""stims/images/echidna.png"",""stims/images/zebra.png"",""stims/images/tiger.png"",""stims/images/lobster.png"",""stims/images/raccoon.png""]","raccoon","stims/images/raccoon.png","somewhat familiar","pretest","3","","","","","","","","","","","","","","","","",""
"coact-test","16","55444","0.0-16.0","p111","3","2","","","","","","59621.104","","","[""stims/images/armadillo.png"",""stims/images/antelope.png"",""stims/images/pangolin.png"",""stims/images/echidna.png"",""stims/images/zebra.png"",""stims/images/tiger.png"",""stims/images/lobster.png"",""stims/images/raccoon.png""]","raccoon","","somewhat familiar","pretest","3","stims/audio/wheres_raccoon.wav","7","stims/images/raccoon.png","1","","","","","","","","","","","","",""
"coact-test-prompt","17","56771","0.0-17.0","p111","3","2","","","","","","1326","","","[""stims/images/raccoon.png"",""stims/images/lobster.png"",""stims/images/zebra.png"",""stims/images/armadillo.png"",""stims/images/antelope.png"",""stims/images/echidna.png"",""stims/images/pangolin.png"",""stims/images/tiger.png""]","antelope","stims/images/antelope.png","somewhat unfamiliar","pretest","3","","","","","","","","","","","","","","","","",""
"coact-test","18","64092","0.0-18.0","p111","3","2","","","","","","68263.30933333335","","","[""stims/images/raccoon.png"",""stims/images/lobster.png"",""stims/images/zebra.png"",""stims/images/armadillo.png"",""stims/images/antelope.png"",""stims/images/echidna.png"",""stims/images/pangolin.png"",""stims/images/tiger.png""]","antelope","","somewhat unfamiliar","pretest","3","stims/audio/find_antelope.wav","3","stims/images/armadillo.png","0","","","","","","","","","","","","",""
"coact-test-prompt","19","67444","0.0-19.0","p111","3","2","","","","","","3351","","","[""stims/images/antelope.png"",""stims/images/pangolin.png"",""stims/images/zebra.png"",""stims/images/armadillo.png"",""stims/images/echidna.png"",""stims/images/raccoon.png"",""stims/images/lobster.png"",""stims/images/tiger.png""]","armadillo","stims/images/armadillo.png","somewhat unfamiliar","pretest","3","","","","","","","","","","","","","","","","",""
"coact-test","20","74243","0.0-20.0","p111","3","2","","","","","","78403.63733333333","","","[""stims/images/antelope.png"",""stims/images/pangolin.png"",""stims/images/zebra.png"",""stims/images/armadillo.png"",""stims/images/echidna.png"",""stims/images/raccoon.png"",""stims/images/lobster.png"",""stims/images/tiger.png""]","armadillo","","somewhat unfamiliar","pretest","3","stims/audio/find_armadillo.wav","3","stims/images/armadillo.png","1","","","","","","","","","","","","",""
"coact-test-prompt","21","75991","0.0-21.0","p111","3","2","","","","","","1748","","","[""stims/images/armadillo.png"",""stims/images/echidna.png"",""stims/images/raccoon.png"",""stims/images/pangolin.png"",""stims/images/antelope.png"",""stims/images/lobster.png"",""stims/images/zebra.png"",""stims/images/tiger.png""]","lobster","stims/images/lobster.png","somewhat familiar","pretest","3","","","","","","","","","","","","","","","","",""
"coact-test","22","80385","0.0-22.0","p111","3","2","","","","","","84537.09066666667","","","[""stims/images/armadillo.png"",""stims/images/echidna.png"",""stims/images/raccoon.png"",""stims/images/pangolin.png"",""stims/images/antelope.png"",""stims/images/lobster.png"",""stims/images/zebra.png"",""stims/images/tiger.png""]","lobster","","somewhat familiar","pretest","3","stims/audio/wheres_lobster.wav","5","stims/images/lobster.png","1","","","","","","","","","","","","",""
"html-button-response","23","83194","0.0-23.0","p111","3","2","","","","","","2808","","0","","","","","","","","","","","","","","","","","","","","","","",""
"coact-grid","24","90655","0.0-24.0","p111","3","2","","","","","","6155","","","[""stims/images/cat.png"",""stims/images/butterfly.png"",""stims/images/squirrel.png"",""stims/images/horse.png"",""stims/images/cow.png"",""stims/images/wolf.png"",""stims/images/duck.png"",""stims/images/frog.png""]","","","","","familiar","","","","","[2,6]","[""stims/images/squirrel.png"",""stims/images/duck.png""]","[""squirrel"",""duck""]","[""stims/audio/its_squirrel.wav"",""stims/audio/its_duck.wav""]","left","[""stims/images/squirrel.png"",""stims/images/duck.png""]","[""stims/audio/its_squirrel.wav"",""stims/audio/its_duck.wav""]","[""squirrel"",""duck""]","passive","0","","",""
"coact-grid-choice","25","95441","0.0-25.0","p111","3","2","","","","","","4785","","","[""stims/images/cat.png"",""stims/images/butterfly.png"",""stims/images/squirrel.png"",""stims/images/horse.png"",""stims/images/cow.png"",""stims/images/wolf.png"",""stims/images/duck.png"",""stims/images/frog.png""]","","","","","familiar","","","stims/images/squirrel.png","","","[""stims/images/squirrel.png"",""stims/images/duck.png""]","","","","[""stims/images/squirrel.png"",""stims/images/duck.png""]","[""stims/audio/its_squirrel.wav"",""stims/audio/its_duck.wav""]","[""squirrel"",""duck""]","active","0","0","stims/audio/its_squirrel.wav","[""stims/images/squirrel.png"",""stims/images/duck.png""]"
"coact-grid-choice-audio","26","98446","0.0-26.0","p111","3","2","","","","","","3003","","","[""stims/images/cat.png"",""stims/images/butterfly.png"",""stims/images/squirrel.png"",""stims/images/horse.png"",""stims/images/cow.png"",""stims/images/wolf.png"",""stims/images/duck.png"",""stims/images/frog.png""]","","","","","familiar","","","stims/images/squirrel.png","","","","","","","","","","active","0","","stims/audio/its_squirrel.wav","[""stims/images/squirrel.png"",""stims/images/duck.png""]"
"coact-grid","27","104161","0.0-27.0","p111","3","2","","","","","","4409","","","[""stims/images/zebra.png"",""stims/images/antelope.png"",""stims/images/pangolin.png"",""stims/images/lobster.png"",""stims/images/raccoon.png"",""stims/images/tiger.png"",""stims/images/armadillo.png"",""stims/images/echidna.png""]","","","","","3","","","","","[6,2]","[""stims/images/armadillo.png"",""stims/images/pangolin.png""]","[""armadillo"",""pangolin""]","[""stims/audio/thats_armadillo.wav"",""stims/audio/thats_pangolin.wav""]","right","[""stims/images/pangolin.png"",""stims/images/armadillo.png""]","[""stims/audio/thats_pangolin.wav"",""stims/audio/thats_armadillo.wav""]","[""pangolin"",""armadillo""]","passive","0","","",""
"coact-grid-choice","28","111850","0.0-28.0","p111","3","2","","","","","","7689","","","[""stims/images/zebra.png"",""stims/images/antelope.png"",""stims/images/pangolin.png"",""stims/images/lobster.png"",""stims/images/raccoon.png"",""stims/images/tiger.png"",""stims/images/armadillo.png"",""stims/images/echidna.png""]","","","","","3","","","stims/images/pangolin.png","","","[""stims/images/armadillo.png"",""stims/images/pangolin.png""]","","","","[""stims/images/pangolin.png"",""stims/images/armadillo.png""]","[""stims/audio/thats_pangolin.wav"",""stims/audio/thats_armadillo.wav""]","[""pangolin"",""armadillo""]","active","0","0","stims/audio/thats_pangolin.wav","[""stims/images/pangolin.png"",""stims/images/armadillo.png""]"
"coact-grid-choice-audio","29","114855","0.0-29.0","p111","3","2","","","","","","3003","","","[""stims/images/zebra.png"",""stims/images/antelope.png"",""stims/images/pangolin.png"",""stims/images/lobster.png"",""stims/images/raccoon.png"",""stims/images/tiger.png"",""stims/images/armadillo.png"",""stims/images/echidna.png""]","","","","","3","","","stims/images/pangolin.png","","","","","","","","","","active","0","","stims/audio/thats_pangolin.wav","[""stims/images/pangolin.png"",""stims/images/armadillo.png""]"
"coact-grid","30","118998","0.0-30.0","p111","3","2","","","","","","2836","","","[""stims/images/lobster.png"",""stims/images/zebra.png"",""stims/images/raccoon.png"",""stims/images/echidna.png"",""stims/images/tiger.png"",""stims/images/antelope.png"",""stims/images/armadillo.png"",""stims/images/pangolin.png""]","","","","","3","","","","","[6,5]","[""stims/images/armadillo.png"",""stims/images/antelope.png""]","[""armadillo"",""antelope""]","[""stims/audio/its_armadillo.wav"",""stims/audio/its_antelope.wav""]","right","[""stims/images/antelope.png"",""stims/images/armadillo.png""]","[""stims/audio/its_antelope.wav"",""stims/audio/its_armadillo.wav""]","[""antelope"",""armadillo""]","passive","1","","",""
"coact-grid-choice","31","123024","0.0-31.0","p111","3","2","","","","","","4025","","","[""stims/images/lobster.png"",""stims/images/zebra.png"",""stims/images/raccoon.png"",""stims/images/echidna.png"",""stims/images/tiger.png"",""stims/images/antelope.png"",""stims/images/armadillo.png"",""stims/images/pangolin.png""]","","","","","3","","","stims/images/armadillo.png","","","[""stims/images/armadillo.png"",""stims/images/antelope.png""]","","","","[""stims/images/antelope.png"",""stims/images/armadillo.png""]","[""stims/audio/its_antelope.wav"",""stims/audio/its_armadillo.wav""]","[""antelope"",""armadillo""]","active","1","1","stims/audio/its_armadillo.wav","[""stims/images/antelope.png"",""stims/images/armadillo.png""]"
"coact-grid-choice-audio","32","126030","0.0-32.0","p111","3","2","","","","","","3003","","","[""stims/images/lobster.png"",""stims/images/zebra.png"",""stims/images/raccoon.png"",""stims/images/echidna.png"",""stims/images/tiger.png"",""stims/images/antelope.png"",""stims/images/armadillo.png"",""stims/images/pangolin.png""]","","","","","3","","","stims/images/armadillo.png","","","","","","","","","","active","1","","stims/audio/its_armadillo.wav","[""stims/images/antelope.png"",""stims/images/armadillo.png""]"
"coact-grid","33","130093","0.0-33.0","p111","3","2","","","","","","2757","","","[""stims/images/raccoon.png"",""stims/images/zebra.png"",""stims/images/echidna.png"",""stims/images/lobster.png"",""stims/images/pangolin.png"",""stims/images/armadillo.png"",""stims/images/tiger.png"",""stims/images/antelope.png""]","","","","","3","","","","","[1,5]","[""stims/images/zebra.png"",""stims/images/armadillo.png""]","[""zebra"",""armadillo""]","[""stims/audio/thats_zebra.wav"",""stims/audio/thats_armadillo.wav""]","left","[""stims/images/zebra.png"",""stims/images/armadillo.png""]","[""stims/audio/thats_zebra.wav"",""stims/audio/thats_armadillo.wav""]","[""zebra"",""armadillo""]","passive","2","","",""
"coact-grid-choice","34","133580","0.0-34.0","p111","3","2","","","","","","3487","","","[""stims/images/raccoon.png"",""stims/images/zebra.png"",""stims/images/echidna.png"",""stims/images/lobster.png"",""stims/images/pangolin.png"",""stims/images/armadillo.png"",""stims/images/tiger.png"",""stims/images/antelope.png""]","","","","","3","","","stims/images/zebra.png","","","[""stims/images/zebra.png"",""stims/images/armadillo.png""]","","","","[""stims/images/zebra.png"",""stims/images/armadillo.png""]","[""stims/audio/thats_zebra.wav"",""stims/audio/thats_armadillo.wav""]","[""zebra"",""armadillo""]","active","2","0","stims/audio/thats_zebra.wav","[""stims/images/zebra.png"",""stims/images/armadillo.png""]"
"coact-grid-choice-audio","35","136586","0.0-35.0","p111","3","2","","","","","","3003","","","[""stims/images/raccoon.png"",""stims/images/zebra.png"",""stims/images/echidna.png"",""stims/images/lobster.png"",""stims/images/pangolin.png"",""stims/images/armadillo.png"",""stims/images/tiger.png"",""stims/images/antelope.png""]","","","","","3","","","stims/images/zebra.png","","","","","","","","","","active","2","","stims/audio/thats_zebra.wav","[""stims/images/zebra.png"",""stims/images/armadillo.png""]"
"coact-grid","36","140850","0.0-36.0","p111","3","2","","","","","","2958.999999999971","","","[""stims/images/echidna.png"",""stims/images/lobster.png"",""stims/images/antelope.png"",""stims/images/zebra.png"",""stims/images/pangolin.png"",""stims/images/raccoon.png"",""stims/images/tiger.png"",""stims/images/armadillo.png""]","","","","","3","","","","","[1,5]","[""stims/images/lobster.png"",""stims/images/raccoon.png""]","[""lobster"",""raccoon""]","[""stims/audio/its_lobster.wav"",""stims/audio/its_raccoon.wav""]","left","[""stims/images/lobster.png"",""stims/images/raccoon.png""]","[""stims/audio/its_lobster.wav"",""stims/audio/its_raccoon.wav""]","[""lobster"",""raccoon""]","passive","3","","",""
"coact-grid-choice","37","142368","0.0-37.0","p111","3","2","","","","","","1517","","","[""stims/images/echidna.png"",""stims/images/lobster.png"",""stims/images/antelope.png"",""stims/images/zebra.png"",""stims/images/pangolin.png"",""stims/images/raccoon.png"",""stims/images/tiger.png"",""stims/images/armadillo.png""]","","","","","3","","","stims/images/raccoon.png","","","[""stims/images/lobster.png"",""stims/images/raccoon.png""]","","","","[""stims/images/lobster.png"",""stims/images/raccoon.png""]","[""stims/audio/its_lobster.wav"",""stims/audio/its_raccoon.wav""]","[""lobster"",""raccoon""]","active","3","1","stims/audio/its_raccoon.wav","[""stims/images/lobster.png"",""stims/images/raccoon.png""]"
"coact-grid-choice-audio","38","145372","0.0-38.0","p111","3","2","","","","","","3003","","","[""stims/images/echidna.png"",""stims/images/lobster.png"",""stims/images/antelope.png"",""stims/images/zebra.png"",""stims/images/pangolin.png"",""stims/images/raccoon.png"",""stims/images/tiger.png"",""stims/images/armadillo.png""]","","","","","3","","","stims/images/raccoon.png","","","","","","","","","","active","3","","stims/audio/its_raccoon.wav","[""stims/images/lobster.png"",""stims/images/raccoon.png""]"
"coact-grid","39","149322","0.0-39.0","p111","3","2","","","","","","2645","","","[""stims/images/echidna.png"",""stims/images/raccoon.png"",""stims/images/zebra.png"",""stims/images/tiger.png"",""stims/images/lobster.png"",""stims/images/armadillo.png"",""stims/images/antelope.png"",""stims/images/pangolin.png""]","","","","","3","","","","","[6,1]","[""stims/images/antelope.png"",""stims/images/raccoon.png""]","[""antelope"",""raccoon""]","[""stims/audio/thats_antelope.wav"",""stims/audio/thats_raccoon.wav""]","left","[""stims/images/antelope.png"",""stims/images/raccoon.png""]","[""stims/audio/thats_antelope.wav"",""stims/audio/thats_raccoon.wav""]","[""antelope"",""raccoon""]","passive","4","","",""
"coact-grid-choice","40","151040","0.0-40.0","p111","3","2","","","","","","1717","","","[""stims/images/echidna.png"",""stims/images/raccoon.png"",""stims/images/zebra.png"",""stims/images/tiger.png"",""stims/images/lobster.png"",""stims/images/armadillo.png"",""stims/images/antelope.png"",""stims/images/pangolin.png""]","","","","","3","","","stims/images/antelope.png","","","[""stims/images/antelope.png"",""stims/images/raccoon.png""]","","","","[""stims/images/antelope.png"",""stims/images/raccoon.png""]","[""stims/audio/thats_antelope.wav"",""stims/audio/thats_raccoon.wav""]","[""antelope"",""raccoon""]","active","4","0","stims/audio/thats_antelope.wav","[""stims/images/antelope.png"",""stims/images/raccoon.png""]"
"coact-grid-choice-audio","41","154044","0.0-41.0","p111","3","2","","","","","","3003","","","[""stims/images/echidna.png"",""stims/images/raccoon.png"",""stims/images/zebra.png"",""stims/images/tiger.png"",""stims/images/lobster.png"",""stims/images/armadillo.png"",""stims/images/antelope.png"",""stims/images/pangolin.png""]","","","","","3","","","stims/images/antelope.png","","","","","","","","","","active","4","","stims/audio/thats_antelope.wav","[""stims/images/antelope.png"",""stims/images/raccoon.png""]"
"coact-grid","42","158577","0.0-42.0","p111","3","2","","","","","","3227","","","[""stims/images/raccoon.png"",""stims/images/tiger.png"",""stims/images/lobster.png"",""stims/images/echidna.png"",""stims/images/antelope.png"",""stims/images/armadillo.png"",""stims/images/zebra.png"",""stims/images/pangolin.png""]","","","","","3","","","","","[4,3]","[""stims/images/antelope.png"",""stims/images/echidna.png""]","[""antelope"",""echidna""]","[""stims/audio/its_antelope.wav"",""stims/audio/its_echidna.wav""]","right","[""stims/images/echidna.png"",""stims/images/antelope.png""]","[""stims/audio/its_echidna.wav"",""stims/audio/its_antelope.wav""]","[""echidna"",""antelope""]","passive","5","","",""
"coact-grid-choice","43","162347","0.0-43.0","p111","3","2","","","","","","3769","","","[""stims/images/raccoon.png"",""stims/images/tiger.png"",""stims/images/lobster.png"",""stims/images/echidna.png"",""stims/images/antelope.png"",""stims/images/armadillo.png"",""stims/images/zebra.png"",""stims/images/pangolin.png""]","","","","","3","","","stims/images/echidna.png","","","[""stims/images/antelope.png"",""stims/images/echidna.png""]","","","","[""stims/images/echidna.png"",""stims/images/antelope.png""]","[""stims/audio/its_echidna.wav"",""stims/audio/its_antelope.wav""]","[""echidna"",""antelope""]","active","5","0","stims/audio/its_echidna.wav","[""stims/images/echidna.png"",""stims/images/antelope.png""]"
"coact-grid-choice-audio","44","165352","0.0-44.0","p111","3","2","","","","","","3000","","","[""stims/images/raccoon.png"",""stims/images/tiger.png"",""stims/images/lobster.png"",""stims/images/echidna.png"",""stims/images/antelope.png"",""stims/images/armadillo.png"",""stims/images/zebra.png"",""stims/images/pangolin.png""]","","","","","3","","","stims/images/echidna.png","","","","","","","","","","active","5","","stims/audio/its_echidna.wav","[""stims/images/echidna.png"",""stims/images/antelope.png""]"
"html-button-response","45","177674","0.0-45.0","p111","3","2","","","","","","12321","","0","","","","","","","","","","","","","","","","","","","","","","",""
"coact-test-prompt","46","179559","0.0-46.0","p111","3","2","","","","","","1884","","","[""stims/images/butterfly.png"",""stims/images/cat.png"",""stims/images/squirrel.png"",""stims/images/cow.png"",""stims/images/frog.png"",""stims/images/duck.png"",""stims/images/horse.png"",""stims/images/wolf.png""]","squirrel","stims/images/squirrel.png","familiar","practice_posttest","familiar","","","","","","","","","","","","","","","","",""
"coact-test","47","182427","0.0-47.0","p111","3","2","","","","","","186480.52266666666","","","[""stims/images/butterfly.png"",""stims/images/cat.png"",""stims/images/squirrel.png"",""stims/images/cow.png"",""stims/images/frog.png"",""stims/images/duck.png"",""stims/images/horse.png"",""stims/images/wolf.png""]","squirrel","","familiar","practice_posttest","familiar","stims/audio/find_squirrel.wav","2","stims/images/squirrel.png","1","","","","","","","","","","","","",""
"coact-test-prompt","48","184354","0.0-48.0","p111","3","2","","","","","","1927","","","[""stims/images/butterfly.png"",""stims/images/frog.png"",""stims/images/duck.png"",""stims/images/squirrel.png"",""stims/images/wolf.png"",""stims/images/horse.png"",""stims/images/cat.png"",""stims/images/cow.png""]","wolf","stims/images/wolf.png","familiar","practice_posttest","familiar","","","","","","","","","","","","","","","","",""
"coact-test","49","187782","0.0-49.0","p111","3","2","","","","","","191829.728","","","[""stims/images/butterfly.png"",""stims/images/frog.png"",""stims/images/duck.png"",""stims/images/squirrel.png"",""stims/images/wolf.png"",""stims/images/horse.png"",""stims/images/cat.png"",""stims/images/cow.png""]","wolf","","familiar","practice_posttest","familiar","stims/audio/wheres_wolf.wav","4","stims/images/wolf.png","1","","","","","","","","","","","","",""
"coact-test-prompt","50","189039","0.0-50.0","p111","3","2","","","","","","1257","","","[""stims/images/tiger.png"",""stims/images/raccoon.png"",""stims/images/zebra.png"",""stims/images/armadillo.png"",""stims/images/pangolin.png"",""stims/images/echidna.png"",""stims/images/lobster.png"",""stims/images/antelope.png""]","tiger","stims/images/tiger.png","familiar","posttest","3","","","","","","","","","","","","","","","","",""
"coact-test","51","193661","0.0-51.0","p111","3","2","","","","","","197705.04266666668","","","[""stims/images/tiger.png"",""stims/images/raccoon.png"",""stims/images/zebra.png"",""stims/images/armadillo.png"",""stims/images/pangolin.png"",""stims/images/echidna.png"",""stims/images/lobster.png"",""stims/images/antelope.png""]","tiger","","familiar","posttest","3","stims/audio/find_tiger.wav","0","stims/images/tiger.png","1","","","","","","","","","","","","",""
"coact-test-prompt","52","197454","0.0-52.0","p111","3","2","","","","","","3791.000000000029","","","[""stims/images/antelope.png"",""stims/images/raccoon.png"",""stims/images/armadillo.png"",""stims/images/zebra.png"",""stims/images/lobster.png"",""stims/images/tiger.png"",""stims/images/echidna.png"",""stims/images/pangolin.png""]","lobster","stims/images/lobster.png","somewhat familiar","posttest","3","","","","","","","","","","","","","","","","",""
"coact-test","53","200865","0.0-53.0","p111","3","2","","","","","","204901.62933333337","","","[""stims/images/antelope.png"",""stims/images/raccoon.png"",""stims/images/armadillo.png"",""stims/images/zebra.png"",""stims/images/lobster.png"",""stims/images/tiger.png"",""stims/images/echidna.png"",""stims/images/pangolin.png""]","lobster","","somewhat familiar","posttest","3","stims/audio/find_lobster.wav","4","stims/images/lobster.png","1","","","","","","","","","","","","",""
"coact-test-prompt","54","202216","0.0-54.0","p111","3","2","","","","","","1350","","","[""stims/images/armadillo.png"",""stims/images/lobster.png"",""stims/images/echidna.png"",""stims/images/pangolin.png"",""stims/images/antelope.png"",""stims/images/tiger.png"",""stims/images/raccoon.png"",""stims/images/zebra.png""]","armadillo","stims/images/armadillo.png","somewhat unfamiliar","posttest","3","","","","","","","","","","","","","","","","",""
"coact-test","55","205934","0.0-55.0","p111","3","2","","","","","","209965.86666666667","","","[""stims/images/armadillo.png"",""stims/images/lobster.png"",""stims/images/echidna.png"",""stims/images/pangolin.png"",""stims/images/antelope.png"",""stims/images/tiger.png"",""stims/images/raccoon.png"",""stims/images/zebra.png""]","armadillo","","somewhat unfamiliar","posttest","3","stims/audio/wheres_armadillo.wav","0","stims/images/armadillo.png","1","","","","","","","","","","","","",""
"coact-test-prompt","56","207268","0.0-56.0","p111","3","2","","","","","","1332.999999999971","","","[""stims/images/echidna.png"",""stims/images/pangolin.png"",""stims/images/tiger.png"",""stims/images/raccoon.png"",""stims/images/lobster.png"",""stims/images/antelope.png"",""stims/images/armadillo.png"",""stims/images/zebra.png""]","raccoon","stims/images/raccoon.png","somewhat familiar","posttest","3","","","","","","","","","","","","","","","","",""
"coact-test","57","212229","0.0-57.0","p111","3","2","","","","","","216255.816","","","[""stims/images/echidna.png"",""stims/images/pangolin.png"",""stims/images/tiger.png"",""stims/images/raccoon.png"",""stims/images/lobster.png"",""stims/images/antelope.png"",""stims/images/armadillo.png"",""stims/images/zebra.png""]","raccoon","","somewhat familiar","posttest","3","stims/audio/find_raccoon.wav","3","stims/images/raccoon.png","1","","","","","","","","","","","","",""
"coact-test-prompt","58","213788","0.0-58.0","p111","3","2","","","","","","1557","","","[""stims/images/raccoon.png"",""stims/images/tiger.png"",""stims/images/lobster.png"",""stims/images/zebra.png"",""stims/images/echidna.png"",""stims/images/armadillo.png"",""stims/images/pangolin.png"",""stims/images/antelope.png""]","pangolin","stims/images/pangolin.png","unfamiliar","posttest","3","","","","","","","","","","","","","","","","",""
"coact-test","59","218240","0.0-59.0","p111","3","2","","","","","","222261.29333333333","","","[""stims/images/raccoon.png"",""stims/images/tiger.png"",""stims/images/lobster.png"",""stims/images/zebra.png"",""stims/images/echidna.png"",""stims/images/armadillo.png"",""stims/images/pangolin.png"",""stims/images/antelope.png""]","pangolin","","unfamiliar","posttest","3","stims/audio/wheres_pangolin.wav","6","stims/images/pangolin.png","1","","","","","","","","","","","","",""
"coact-test-prompt","60","221768","0.0-60.0","p111","3","2","","","","","","3527","","","[""stims/images/tiger.png"",""stims/images/pangolin.png"",""stims/images/echidna.png"",""stims/images/antelope.png"",""stims/images/armadillo.png"",""stims/images/zebra.png"",""stims/images/raccoon.png"",""stims/images/lobster.png""]","zebra","stims/images/zebra.png","familiar","posttest","3","","","","","","","","","","","","","","","","",""
"coact-test","61","225180","0.0-61.0","p111","3","2","","","","","","229192.3146666667","","","[""stims/images/tiger.png"",""stims/images/pangolin.png"",""stims/images/echidna.png"",""stims/images/antelope.png"",""stims/images/armadillo.png"",""stims/images/zebra.png"",""stims/images/raccoon.png"",""stims/images/lobster.png""]","zebra","","familiar","posttest","3","stims/audio/wheres_zebra.wav","5","stims/images/zebra.png","1","","","","","","","","","","","","",""
"coact-test-prompt","62","228747","0.0-62.0","p111","3","2","","","","","","3566","","","[""stims/images/zebra.png"",""stims/images/lobster.png"",""stims/images/pangolin.png"",""stims/images/antelope.png"",""stims/images/raccoon.png"",""stims/images/tiger.png"",""stims/images/echidna.png"",""stims/images/armadillo.png""]","echidna","stims/images/echidna.png","unfamiliar","posttest","3","","","","","","","","","","","","","","","","",""
"coact-test","63","234943","0.0-63.0","p111","3","2","","","","","","238949.336","","","[""stims/images/zebra.png"",""stims/images/lobster.png"",""stims/images/pangolin.png"",""stims/images/antelope.png"",""stims/images/raccoon.png"",""stims/images/tiger.png"",""stims/images/echidna.png"",""stims/images/armadillo.png""]","echidna","","unfamiliar","posttest","3","stims/audio/wheres_echidna.wav","3","stims/images/antelope.png","0","","","","","","","","","","","","",""
"coact-test-prompt","64","238578","0.0-64.0","p111","3","2","","","","","","3634","","","[""stims/images/pangolin.png"",""stims/images/antelope.png"",""stims/images/lobster.png"",""stims/images/raccoon.png"",""stims/images/zebra.png"",""stims/images/armadillo.png"",""stims/images/tiger.png"",""stims/images/echidna.png""]","antelope","stims/images/antelope.png","somewhat unfamiliar","posttest","3","","","","","","","","","","","","","","","","",""
"coact-test","65","244224","0.0-65.0","p111","3","2","","","","","","248220.50666666665","","","[""stims/images/pangolin.png"",""stims/images/antelope.png"",""stims/images/lobster.png"",""stims/images/raccoon.png"",""stims/images/zebra.png"",""stims/images/armadillo.png"",""stims/images/tiger.png"",""stims/images/echidna.png""]","antelope","","somewhat unfamiliar","posttest","3","stims/audio/find_antelope.wav","1","stims/images/antelope.png","1","","","","","","","","","","","","",""
