"trial_type","trial_index","time_elapsed","internal_node_id","subject_id","round_name","round_index","success","timeout","failed_images","failed_audio","failed_video","rt","stimulus","response","images","target","target_image","target_type","round_type","set","test_audio","choice","chosen_image","correct","choices","chosen_images","chosen_items","chosen_audio_items","first_choice_location","chosen_images_in_order","chosen_audio_in_order","chosen_items_in_order","condition","sample_num","chosen_index","chosen_audio","central_images"
"pavlovia","0","3","0.0-0.0","p081","1","0","","","","","","","","","","","","","","","","","","","","","","","","","","","","","","",""
"preload","1","354","0.0-1.0","p081","1","0","true","false","[]","[]","[]","","","","","","","","","","","","","","","","","","","","","","","","","",""
"html-button-response","2","19328","0.0-2.0","p081","1","0","","","","","","18974","","0","","","","","","","","","","","","","","","","","","","","","","",""
"coact-test-prompt","3","22155","0.0-3.0","p081","1","0","","","","","","2824.9999999999854","","","[""stims/images/wolf.png"",""stims/images/butterfly.png"",""stims/images/frog.png"",""stims/images/horse.png"",""stims/images/cat.png"",""stims/images/duck.png"",""stims/images/squirrel.png"",""stims/images/cow.png""]","cow","stims/images/cow.png","familiar","practice_pretest","familiar","","","","","","","","","","","","","","","","",""
"coact-test","4","26432","0.0-4.0","p081","1","0","","","","","","108795.12","","","[""stims/images/wolf.png"",""stims/images/butterfly.png"",""stims/images/frog.png"",""stims/images/horse.png"",""stims/images/cat.png"",""stims/images/duck.png"",""stims/images/squirrel.png"",""stims/images/cow.png""]","cow","","familiar","practice_pretest","familiar","stims/audio/wheres_cow.wav","7","stims/images/cow.png","1","","","","","","","","","","","","",""
"coact-test-prompt","5","28407","0.0-5.0","p081","1","0","","","","","","1973.9999999999854","","","[""stims/images/horse.png"",""stims/images/squirrel.png"",""stims/images/duck.png"",""stims/images/wolf.png"",""stims/images/butterfly.png"",""stims/images/frog.png"",""stims/images/cow.png"",""stims/images/cat.png""]","butterfly","stims/images/butterfly.png","familiar","practice_pretest","familiar","","","","","","","","","","","","","","","","",""
"coact-test","6","31801","0.0-6.0","p081","1","0","","","","","","114157.864","","","[""stims/images/horse.png"",""stims/images/squirrel.png"",""stims/images/duck.png"",""stims/images/wolf.png"",""stims/images/butterfly.png"",""stims/images/frog.png"",""stims/images/cow.png"",""stims/images/cat.png""]","butterfly","","familiar","practice_pretest","familiar","stims/audio/wheres_butterfly.wav","4","stims/images/butterfly.png","1","","","","","","","","","","","","",""
"coact-test-prompt","7","33293","0.0-7.0","p081","1","0","","","","","","1491","","","[""stims/images/pig.png"",""stims/images/lobster.png"",""stims/images/jaguar.png"",""stims/images/antelope.png"",""stims/images/narwhal.png"",""stims/images/pangolin.png"",""stims/images/sloth.png"",""stims/images/bear.png""]","narwhal","stims/images/narwhal.png","unfamiliar","pretest","1","","","","","","","","","","","","","","","","",""
"coact-test","8","36178","0.0-8.0","p081","1","0","","","","","","118530.98133333333","","","[""stims/images/pig.png"",""stims/images/lobster.png"",""stims/images/jaguar.png"",""stims/images/antelope.png"",""stims/images/narwhal.png"",""stims/images/pangolin.png"",""stims/images/sloth.png"",""stims/images/bear.png""]","narwhal","","unfamiliar","pretest","1","stims/audio/find_narwhal.wav","4","stims/images/narwhal.png","1","","","","","","","","","","","","",""
"coact-test-prompt","9","37371","0.0-9.0","p081","1","0","","","","","","1192","","","[""stims/images/antelope.png"",""stims/images/pig.png"",""stims/images/lobster.png"",""stims/images/narwhal.png"",""stims/images/sloth.png"",""stims/images/bear.png"",""stims/images/pangolin.png"",""stims/images/jaguar.png""]","antelope","stims/images/antelope.png","somewhat unfamiliar","pretest","1","","","","","","","","","","","","","","","","",""
"coact-test","10","41615","0.0-10.0","p081","1","0","","","","","","123963.90133333333","","","[""stims/images/antelope.png"",""stims/images/pig.png"",""stims/images/lobster.png"",""stims/images/narwhal.png"",""stims/images/sloth.png"",""stims/images/bear.png"",""stims/images/pangolin.png"",""stims/images/jaguar.png""]","antelope","","somewhat unfamiliar","pretest","1","stims/audio/wheres_antelope.wav","6","stims/images/pangolin.png","0","","","","","","","","","","","","",""
"coact-test-prompt","11","42956","0.0-11.0","p081","1","0","","","","","","1340.0000000000146","","","[""stims/images/lobster.png"",""stims/images/narwhal.png"",""stims/images/sloth.png"",""stims/images/bear.png"",""stims/images/pangolin.png"",""stims/images/pig.png"",""stims/images/jaguar.png"",""stims/images/antelope.png""]","lobster","stims/images/lobster.png","somewhat familiar","pretest","1","","","","","","","","","","","","","","","","",""
"coact-test","12","46610","0.0-12.0","p081","1","0","","","","","","128953.31733333335","","","[""stims/images/lobster.png"",""stims/images/narwhal.png"",""stims/images/sloth.png"",""stims/images/bear.png"",""stims/images/pangolin.png"",""stims/images/pig.png"",""stims/images/jaguar.png"",""stims/images/antelope.png""]","lobster","","somewhat familiar","pretest","1","stims/audio/find_lobster.wav","0","stims/images/lobster.png","1","","","","","","","","","","","","",""
"coact-test-prompt","13","49427","0.0-13.0","p081","1","0","","","","","","2817","","","[""stims/images/antelope.png"",""stims/images/pig.png"",""stims/images/lobster.png"",""stims/images/narwhal.png"",""stims/images/sloth.png"",""stims/images/jaguar.png"",""stims/images/pangolin.png"",""stims/images/bear.png""]","sloth","stims/images/sloth.png","somewhat unfamiliar","pretest","1","","","","","","","","","","","","","","","","",""
"coact-test","14","54198","0.0-14.0","p081","1","0","","","","","","136535.84533333333","","","[""stims/images/antelope.png"",""stims/images/pig.png"",""stims/images/lobster.png"",""stims/images/narwhal.png"",""stims/images/sloth.png"",""stims/images/jaguar.png"",""stims/images/pangolin.png"",""stims/images/bear.png""]","sloth","","somewhat unfamiliar","pretest","1","stims/audio/find_sloth.wav","4","stims/images/sloth.png","1","","","","","","","","","","","","",""
"coact-test-prompt","15","57022","0.0-15.0","p081","1","0","","","","","","2823","","","[""stims/images/antelope.png"",""stims/images/pig.png"",""stims/images/jaguar.png"",""stims/images/lobster.png"",""stims/images/bear.png"",""stims/images/pangolin.png"",""stims/images/narwhal.png"",""stims/images/sloth.png""]","bear","stims/images/bear.png","familiar","pretest","1","","","","","","","","","","","","","","","","",""
"coact-test","16","59658","0.0-16.0","p081","1","0","","","","","","141988.2506666667","","","[""stims/images/antelope.png"",""stims/images/pig.png"",""stims/images/jaguar.png"",""stims/images/lobster.png"",""stims/images/bear.png"",""stims/images/pangolin.png"",""stims/images/narwhal.png"",""stims/images/sloth.png""]","bear","","familiar","pretest","1","stims/audio/wheres_bear.wav","4","stims/images/bear.png","1","","","","","","","","","","","","",""
"coact-test-prompt","17","60867","0.0-17.0","p081","1","0","","","","","","1208","","","[""stims/images/lobster.png"",""stims/images/sloth.png"",""stims/images/narwhal.png"",""stims/images/antelope.png"",""stims/images/pangolin.png"",""stims/images/bear.png"",""stims/images/jaguar.png"",""stims/images/pig.png""]","pig","stims/images/pig.png","familiar","pretest","1","","","","","","","","","","","","","","","","",""
"coact-test","18","66037","0.0-18.0","p081","1","0","","","","","","148364.40533333333","","","[""stims/images/lobster.png"",""stims/images/sloth.png"",""stims/images/narwhal.png"",""stims/images/antelope.png"",""stims/images/pangolin.png"",""stims/images/bear.png"",""stims/images/jaguar.png"",""stims/images/pig.png""]","pig","","familiar","pretest","1","stims/audio/find_pig.wav","7","stims/images/pig.png","1","","","","","","","","","","","","",""
"coact-test-prompt","19","67703","0.0-19.0","p081","1","0","","","","","","1665","","","[""stims/images/pangolin.png"",""stims/images/sloth.png"",""stims/images/antelope.png"",""stims/images/pig.png"",""stims/images/bear.png"",""stims/images/narwhal.png"",""stims/images/jaguar.png"",""stims/images/lobster.png""]","pangolin","stims/images/pangolin.png","unfamiliar","pretest","1","","","","","","","","","","","","","","","","",""
"coact-test","20","73008","0.0-20.0","p081","1","0","","","","","","155328.5706666667","","","[""stims/images/pangolin.png"",""stims/images/sloth.png"",""stims/images/antelope.png"",""stims/images/pig.png"",""stims/images/bear.png"",""stims/images/narwhal.png"",""stims/images/jaguar.png"",""stims/images/lobster.png""]","pangolin","","unfamiliar","pretest","1","stims/audio/wheres_pangolin.wav","1","stims/images/sloth.png","0","","","","","","","","","","","","",""
"coact-test-prompt","21","74721","0.0-21.0","p081","1","0","","","","","","1712","","","[""stims/images/jaguar.png"",""stims/images/pangolin.png"",""stims/images/pig.png"",""stims/images/lobster.png"",""stims/images/antelope.png"",""stims/images/bear.png"",""stims/images/narwhal.png"",""stims/images/sloth.png""]","jaguar","stims/images/jaguar.png","somewhat familiar","pretest","1","","","","","","","","","","","","","","","","",""
"coact-test","22","82054","0.0-22.0","p081","1","0","","","","","","164368.552","","","[""stims/images/jaguar.png"",""stims/images/pangolin.png"",""stims/images/pig.png"",""stims/images/lobster.png"",""stims/images/antelope.png"",""stims/images/bear.png"",""stims/images/narwhal.png"",""stims/images/sloth.png""]","jaguar","","somewhat familiar","pretest","1","stims/audio/wheres_jaguar.wav","0","stims/images/jaguar.png","1","","","","","","","","","","","","",""
"html-button-response","23","112687","0.0-23.0","p081","1","0","","","","","","30632","","0","","","","","","","","","","","","","","","","","","","","","","",""
"coact-grid","24","123228","0.0-24.0","p081","1","0","","","","","","9229","","","[""stims/images/horse.png"",""stims/images/cat.png"",""stims/images/butterfly.png"",""stims/images/cow.png"",""stims/images/frog.png"",""stims/images/squirrel.png"",""stims/images/wolf.png"",""stims/images/duck.png""]","","","","","familiar","","","","","[4,7]","[""stims/images/frog.png"",""stims/images/duck.png""]","[""frog"",""duck""]","[""stims/audio/its_frog.wav"",""stims/audio/its_duck.wav""]","left","[""stims/images/frog.png"",""stims/images/duck.png""]","[""stims/audio/its_frog.wav"",""stims/audio/its_duck.wav""]","[""frog"",""duck""]","active","0","","",""
"coact-grid-choice","25","124384","0.0-25.0","p081","1","0","","","","","","1153.000000000029","","","[""stims/images/horse.png"",""stims/images/cat.png"",""stims/images/butterfly.png"",""stims/images/cow.png"",""stims/images/frog.png"",""stims/images/squirrel.png"",""stims/images/wolf.png"",""stims/images/duck.png""]","","","","","familiar","","","stims/images/frog.png","","","[""stims/images/frog.png"",""stims/images/duck.png""]","","","","[""stims/images/frog.png"",""stims/images/duck.png""]","[""stims/audio/its_frog.wav"",""stims/audio/its_duck.wav""]","[""frog"",""duck""]","passive","0","0","stims/audio/its_frog.wav","[""stims/images/frog.png"",""stims/images/duck.png""]"
"coact-grid-choice-audio","26","127396","0.0-26.0","p081","1","0","","","","","","3000","","","[""stims/images/horse.png"",""stims/images/cat.png"",""stims/images/butterfly.png"",""stims/images/cow.png"",""stims/images/frog.png"",""stims/images/squirrel.png"",""stims/images/wolf.png"",""stims/images/duck.png""]","","","","","familiar","","","stims/images/frog.png","","","","","","","","","","passive","0","","stims/audio/its_frog.wav","[""stims/images/frog.png"",""stims/images/duck.png""]"
"coact-grid","27","135521","0.0-27.0","p081","1","0","","","","","","6731","","","[""stims/images/lobster.png"",""stims/images/jaguar.png"",""stims/images/antelope.png"",""stims/images/pig.png"",""stims/images/bear.png"",""stims/images/narwhal.png"",""stims/images/sloth.png"",""stims/images/pangolin.png""]","","","","","1","","","","","[2,5]","[""stims/images/antelope.png"",""stims/images/narwhal.png""]","[""antelope"",""narwhal""]","[""stims/audio/thats_antelope.wav"",""stims/audio/thats_narwhal.wav""]","left","[""stims/images/antelope.png"",""stims/images/narwhal.png""]","[""stims/audio/thats_antelope.wav"",""stims/audio/thats_narwhal.wav""]","[""antelope"",""narwhal""]","active","0","","",""
"coact-grid-choice","28","136625","0.0-28.0","p081","1","0","","","","","","1102.999999999971","","","[""stims/images/lobster.png"",""stims/images/jaguar.png"",""stims/images/antelope.png"",""stims/images/pig.png"",""stims/images/bear.png"",""stims/images/narwhal.png"",""stims/images/sloth.png"",""stims/images/pangolin.png""]","","","","","1","","","stims/images/narwhal.png","","","[""stims/images/antelope.png"",""stims/images/narwhal.png""]","","","","[""stims/images/antelope.png"",""stims/images/narwhal.png""]","[""stims/audio/thats_antelope.wav"",""stims/audio/thats_narwhal.wav""]","[""antelope"",""narwhal""]","passive","0","1","stims/audio/thats_narwhal.wav","[""stims/images/antelope.png"",""stims/images/narwhal.png""]"
"coact-grid-choice-audio","29","139634","0.0-29.0","p081","1","0","","","","","","3000","","","[""stims/images/lobster.png"",""stims/images/jaguar.png"",""stims/images/antelope.png"",""stims/images/pig.png"",""stims/images/bear.png"",""stims/images/narwhal.png"",""stims/images/sloth.png"",""stims/images/pangolin.png""]","","","","","1","","","stims/images/narwhal.png","","","","","","","","","","passive","0","","stims/audio/thats_narwhal.wav","[""stims/images/antelope.png"",""stims/images/narwhal.png""]"
"coact-grid","30","144527","0.0-30.0","p081","1","0","","","","","","3586","","","[""stims/images/antelope.png"",""stims/images/sloth.png"",""stims/images/pangolin.png"",""stims/images/pig.png"",""stims/images/lobster.png"",""stims/images/jaguar.png"",""stims/images/bear.png"",""stims/images/narwhal.png""]","","","","","1","","","","","[4,2]","[""stims/images/lobster.png"",""stims/images/pangolin.png""]","[""lobster"",""pangolin""]","[""stims/audio/its_lobster.wav"",""stims/audio/its_pangolin.wav""]","left","[""stims/images/lobster.png"",""stims/images/pangolin.png""]","[""stims/audio/its_lobster.wav"",""stims/audio/its_pangolin.wav""]","[""lobster"",""pangolin""]","active","1","","",""
"coact-grid-choice","31","145664","0.0-31.0","p081","1","0","","","","","","1134.999999999971","","","[""stims/images/antelope.png"",""stims/images/sloth.png"",""stims/images/pangolin.png"",""stims/images/pig.png"",""stims/images/lobster.png"",""stims/images/jaguar.png"",""stims/images/bear.png"",""stims/images/narwhal.png""]","","","","","1","","","stims/images/pangolin.png","","","[""stims/images/lobster.png"",""stims/images/pangolin.png""]","","","","[""stims/images/lobster.png"",""stims/images/pangolin.png""]","[""stims/audio/its_lobster.wav"",""stims/audio/its_pangolin.wav""]","[""lobster"",""pangolin""]","passive","1","1","stims/audio/its_pangolin.wav","[""stims/images/lobster.png"",""stims/images/pangolin.png""]"
"coact-grid-choice-audio","32","148674","0.0-32.0","p081","1","0","","","","","","3000","","","[""stims/images/antelope.png"",""stims/images/sloth.png"",""stims/images/pangolin.png"",""stims/images/pig.png"",""stims/images/lobster.png"",""stims/images/jaguar.png"",""stims/images/bear.png"",""stims/images/narwhal.png""]","","","","","1","","","stims/images/pangolin.png","","","","","","","","","","passive","1","","stims/audio/its_pangolin.wav","[""stims/images/lobster.png"",""stims/images/pangolin.png""]"
"coact-grid","33","161798","0.0-33.0","p081","1","0","","","","","","11817.00000000003","","","[""stims/images/pig.png"",""stims/images/lobster.png"",""stims/images/jaguar.png"",""stims/images/narwhal.png"",""stims/images/sloth.png"",""stims/images/antelope.png"",""stims/images/pangolin.png"",""stims/images/bear.png""]","","","","","1","","","","","[4,1]","[""stims/images/sloth.png"",""stims/images/lobster.png""]","[""sloth"",""lobster""]","[""stims/audio/its_sloth.wav"",""stims/audio/its_lobster.wav""]","right","[""stims/images/lobster.png"",""stims/images/sloth.png""]","[""stims/audio/its_lobster.wav"",""stims/audio/its_sloth.wav""]","[""lobster"",""sloth""]","active","2","","",""
"coact-grid-choice","34","163776","0.0-34.0","p081","1","0","","","","","","1976","","","[""stims/images/pig.png"",""stims/images/lobster.png"",""stims/images/jaguar.png"",""stims/images/narwhal.png"",""stims/images/sloth.png"",""stims/images/antelope.png"",""stims/images/pangolin.png"",""stims/images/bear.png""]","","","","","1","","","stims/images/lobster.png","","","[""stims/images/sloth.png"",""stims/images/lobster.png""]","","","","[""stims/images/lobster.png"",""stims/images/sloth.png""]","[""stims/audio/its_lobster.wav"",""stims/audio/its_sloth.wav""]","[""lobster"",""sloth""]","passive","2","0","stims/audio/its_lobster.wav","[""stims/images/lobster.png"",""stims/images/sloth.png""]"
"coact-grid-choice-audio","35","166785","0.0-35.0","p081","1","0","","","","","","3000","","","[""stims/images/pig.png"",""stims/images/lobster.png"",""stims/images/jaguar.png"",""stims/images/narwhal.png"",""stims/images/sloth.png"",""stims/images/antelope.png"",""stims/images/pangolin.png"",""stims/images/bear.png""]","","","","","1","","","stims/images/lobster.png","","","","","","","","","","passive","2","","stims/audio/its_lobster.wav","[""stims/images/lobster.png"",""stims/images/sloth.png""]"
"coact-grid","36","172025","0.0-36.0","p081","1","0","","","","","","3930","","","[""stims/images/pangolin.png"",""stims/images/narwhal.png"",""stims/images/sloth.png"",""stims/images/jaguar.png"",""stims/images/bear.png"",""stims/images/lobster.png"",""stims/images/pig.png"",""stims/images/antelope.png""]","","","","","1","","","","","[6,4]","[""stims/images/pig.png"",""stims/images/bear.png""]","[""pig"",""bear""]","[""stims/audio/its_pig.wav"",""stims/audio/its_bear.wav""]","left","[""stims/images/pig.png"",""stims/images/bear.png""]","[""stims/audio/its_pig.wav"",""stims/audio/its_bear.wav""]","[""pig"",""bear""]","active","3","","",""
"coact-grid-choice","37","172934","0.0-37.0","p081","1","0","","","","","","907","","","[""stims/images/pangolin.png"",""stims/images/narwhal.png"",""stims/images/sloth.png"",""stims/images/jaguar.png"",""stims/images/bear.png"",""stims/images/lobster.png"",""stims/images/pig.png"",""stims/images/antelope.png""]","","","","","1","","","stims/images/pig.png","","","[""stims/images/pig.png"",""stims/images/bear.png""]","","","","[""stims/images/pig.png"",""stims/images/bear.png""]","[""stims/audio/its_pig.wav"",""stims/audio/its_bear.wav""]","[""pig"",""bear""]","passive","3","0","stims/audio/its_pig.wav","[""stims/images/pig.png"",""stims/images/bear.png""]"
"coact-grid-choice-audio","38","175944","0.0-38.0","p081","1","0","","","","","","3003","","","[""stims/images/pangolin.png"",""stims/images/narwhal.png"",""stims/images/sloth.png"",""stims/images/jaguar.png"",""stims/images/bear.png"",""stims/images/lobster.png"",""stims/images/pig.png"",""stims/images/antelope.png""]","","","","","1","","","stims/images/pig.png","","","","","","","","","","passive","3","","stims/audio/its_pig.wav","[""stims/images/pig.png"",""stims/images/bear.png""]"
"coact-grid","39","185064","0.0-39.0","p081","1","0","","","","","","7812.000000000029","","","[""stims/images/lobster.png"",""stims/images/bear.png"",""stims/images/pig.png"",""stims/images/pangolin.png"",""stims/images/sloth.png"",""stims/images/antelope.png"",""stims/images/jaguar.png"",""stims/images/narwhal.png""]","","","","","1","","","","","[6,1]","[""stims/images/jaguar.png"",""stims/images/bear.png""]","[""jaguar"",""bear""]","[""stims/audio/thats_jaguar.wav"",""stims/audio/thats_bear.wav""]","right","[""stims/images/bear.png"",""stims/images/jaguar.png""]","[""stims/audio/thats_bear.wav"",""stims/audio/thats_jaguar.wav""]","[""bear"",""jaguar""]","active","4","","",""
"coact-grid-choice","40","186524","0.0-40.0","p081","1","0","","","","","","1460","","","[""stims/images/lobster.png"",""stims/images/bear.png"",""stims/images/pig.png"",""stims/images/pangolin.png"",""stims/images/sloth.png"",""stims/images/antelope.png"",""stims/images/jaguar.png"",""stims/images/narwhal.png""]","","","","","1","","","stims/images/jaguar.png","","","[""stims/images/jaguar.png"",""stims/images/bear.png""]","","","","[""stims/images/bear.png"",""stims/images/jaguar.png""]","[""stims/audio/thats_bear.wav"",""stims/audio/thats_jaguar.wav""]","[""bear"",""jaguar""]","passive","4","1","stims/audio/thats_jaguar.wav","[""stims/images/bear.png"",""stims/images/jaguar.png""]"
"coact-grid-choice-audio","41","189534","0.0-41.0","p081","1","0","","","","","","3000","","","[""stims/images/lobster.png"",""stims/images/bear.png"",""stims/images/pig.png"",""stims/images/pangolin.png"",""stims/images/sloth.png"",""stims/images/antelope.png"",""stims/images/jaguar.png"",""stims/images/narwhal.png""]","","","","","1","","","stims/images/jaguar.png","","","","","","","","","","passive","4","","stims/audio/thats_jaguar.wav","[""stims/images/bear.png"",""stims/images/jaguar.png""]"
"coact-grid","42","196194","0.0-42.0","p081","1","0","","","","","","5353","","","[""stims/images/narwhal.png"",""stims/images/antelope.png"",""stims/images/bear.png"",""stims/images/pig.png"",""stims/images/sloth.png"",""stims/images/lobster.png"",""stims/images/jaguar.png"",""stims/images/pangolin.png""]","","","","","1","","","","","[7,0]","[""stims/images/pangolin.png"",""stims/images/narwhal.png""]","[""pangolin"",""narwhal""]","[""stims/audio/thats_pangolin.wav"",""stims/audio/thats_narwhal.wav""]","right","[""stims/images/narwhal.png"",""stims/images/pangolin.png""]","[""stims/audio/thats_narwhal.wav"",""stims/audio/thats_pangolin.wav""]","[""narwhal"",""pangolin""]","active","5","","",""
"coact-grid-choice","43","197198","0.0-43.0","p081","1","0","","","","","","1003","","","[""stims/images/narwhal.png"",""stims/images/antelope.png"",""stims/images/bear.png"",""stims/images/pig.png"",""stims/images/sloth.png"",""stims/images/lobster.png"",""stims/images/jaguar.png"",""stims/images/pangolin.png""]","","","","","1","","","stims/images/pangolin.png","","","[""stims/images/pangolin.png"",""stims/images/narwhal.png""]","","","","[""stims/images/narwhal.png"",""stims/images/pangolin.png""]","[""stims/audio/thats_narwhal.wav"",""stims/audio/thats_pangolin.wav""]","[""narwhal"",""pangolin""]","passive","5","1","stims/audio/thats_pangolin.wav","[""stims/images/narwhal.png"",""stims/images/pangolin.png""]"
"coact-grid-choice-audio","44","200208","0.0-44.0","p081","1","0","","","","","","3000","","","[""stims/images/narwhal.png"",""stims/images/antelope.png"",""stims/images/bear.png"",""stims/images/pig.png"",""stims/images/sloth.png"",""stims/images/lobster.png"",""stims/images/jaguar.png"",""stims/images/pangolin.png""]","","","","","1","","","stims/images/pangolin.png","","","","","","","","","","passive","5","","stims/audio/thats_pangolin.wav","[""stims/images/narwhal.png"",""stims/images/pangolin.png""]"
"html-button-response","45","216380","0.0-45.0","p081","1","0","","","","","","16170","","0","","","","","","","","","","","","","","","","","","","","","","",""
"coact-test-prompt","46","218800","0.0-46.0","p081","1","0","","","","","","2418","","","[""stims/images/frog.png"",""stims/images/cat.png"",""stims/images/duck.png"",""stims/images/cow.png"",""stims/images/butterfly.png"",""stims/images/horse.png"",""stims/images/wolf.png"",""stims/images/squirrel.png""]","cow","stims/images/cow.png","familiar","practice_posttest","familiar","","","","","","","","","","","","","","","","",""
"coact-test","47","222860","0.0-47.0","p081","1","0","","","","","","304946.56533333333","","","[""stims/images/frog.png"",""stims/images/cat.png"",""stims/images/duck.png"",""stims/images/cow.png"",""stims/images/butterfly.png"",""stims/images/horse.png"",""stims/images/wolf.png"",""stims/images/squirrel.png""]","cow","","familiar","practice_posttest","familiar","stims/audio/wheres_cow.wav","3","stims/images/cow.png","1","","","","","","","","","","","","",""
"coact-test-prompt","48","224503","0.0-48.0","p081","1","0","","","","","","1641","","","[""stims/images/horse.png"",""stims/images/cat.png"",""stims/images/duck.png"",""stims/images/frog.png"",""stims/images/cow.png"",""stims/images/butterfly.png"",""stims/images/wolf.png"",""stims/images/squirrel.png""]","butterfly","stims/images/butterfly.png","familiar","practice_posttest","familiar","","","","","","","","","","","","","","","","",""
"coact-test","49","229199","0.0-49.0","p081","1","0","","","","","","311279.8613333333","","","[""stims/images/horse.png"",""stims/images/cat.png"",""stims/images/duck.png"",""stims/images/frog.png"",""stims/images/cow.png"",""stims/images/butterfly.png"",""stims/images/wolf.png"",""stims/images/squirrel.png""]","butterfly","","familiar","practice_posttest","familiar","stims/audio/wheres_butterfly.wav","5","stims/images/butterfly.png","1","","","","","","","","","","","","",""
"coact-test-prompt","50","232023","0.0-50.0","p081","1","0","","","","","","2823","","","[""stims/images/pig.png"",""stims/images/jaguar.png"",""stims/images/antelope.png"",""stims/images/sloth.png"",""stims/images/narwhal.png"",""stims/images/pangolin.png"",""stims/images/bear.png"",""stims/images/lobster.png""]","bear","stims/images/bear.png","familiar","posttest","1","","","","","","","","","","","","","","","","",""
"coact-test","51","235001","0.0-51.0","p081","1","0","","","","","","317074.34133333334","","","[""stims/images/pig.png"",""stims/images/jaguar.png"",""stims/images/antelope.png"",""stims/images/sloth.png"",""stims/images/narwhal.png"",""stims/images/pangolin.png"",""stims/images/bear.png"",""stims/images/lobster.png""]","bear","","familiar","posttest","1","stims/audio/find_bear.wav","6","stims/images/bear.png","1","","","","","","","","","","","","",""
"coact-test-prompt","52","235735","0.0-52.0","p081","1","0","","","","","","732","","","[""stims/images/pangolin.png"",""stims/images/narwhal.png"",""stims/images/antelope.png"",""stims/images/pig.png"",""stims/images/sloth.png"",""stims/images/bear.png"",""stims/images/jaguar.png"",""stims/images/lobster.png""]","pig","stims/images/pig.png","familiar","posttest","1","","","","","","","","","","","","","","","","",""
"coact-test","53","238771","0.0-53.0","p081","1","0","","","","","","320840.62933333335","","","[""stims/images/pangolin.png"",""stims/images/narwhal.png"",""stims/images/antelope.png"",""stims/images/pig.png"",""stims/images/sloth.png"",""stims/images/bear.png"",""stims/images/jaguar.png"",""stims/images/lobster.png""]","pig","","familiar","posttest","1","stims/audio/wheres_pig.wav","3","stims/images/pig.png","1","","","","","","","","","","","","",""
"coact-test-prompt","54","239659","0.0-54.0","p081","1","0","","","","","","886.0000000000582","","","[""stims/images/narwhal.png"",""stims/images/jaguar.png"",""stims/images/antelope.png"",""stims/images/pig.png"",""stims/images/lobster.png"",""stims/images/pangolin.png"",""stims/images/sloth.png"",""stims/images/bear.png""]","narwhal","stims/images/narwhal.png","unfamiliar","posttest","1","","","","","","","","","","","","","","","","",""
"coact-test","55","242513","0.0-55.0","p081","1","0","","","","","","324577.70666666667","","","[""stims/images/narwhal.png"",""stims/images/jaguar.png"",""stims/images/antelope.png"",""stims/images/pig.png"",""stims/images/lobster.png"",""stims/images/pangolin.png"",""stims/images/sloth.png"",""stims/images/bear.png""]","narwhal","","unfamiliar","posttest","1","stims/audio/find_narwhal.wav","0","stims/images/narwhal.png","1","","","","","","","","","","","","",""
"coact-test-prompt","56","244022","0.0-56.0","p081","1","0","","","","","","1507","","","[""stims/images/antelope.png"",""stims/images/jaguar.png"",""stims/images/pangolin.png"",""stims/images/sloth.png"",""stims/images/bear.png"",""stims/images/lobster.png"",""stims/images/narwhal.png"",""stims/images/pig.png""]","pangolin","stims/images/pangolin.png","unfamiliar","posttest","1","","","","","","","","","","","","","","","","",""
"coact-test","57","248792","0.0-57.0","p081","1","0","","","","","","330852.344","","","[""stims/images/antelope.png"",""stims/images/jaguar.png"",""stims/images/pangolin.png"",""stims/images/sloth.png"",""stims/images/bear.png"",""stims/images/lobster.png"",""stims/images/narwhal.png"",""stims/images/pig.png""]","pangolin","","unfamiliar","posttest","1","stims/audio/wheres_pangolin.wav","2","stims/images/pangolin.png","1","","","","","","","","","","","","",""
"coact-test-prompt","58","250244","0.0-58.0","p081","1","0","","","","","","1451","","","[""stims/images/bear.png"",""stims/images/jaguar.png"",""stims/images/antelope.png"",""stims/images/narwhal.png"",""stims/images/sloth.png"",""stims/images/pangolin.png"",""stims/images/lobster.png"",""stims/images/pig.png""]","lobster","stims/images/lobster.png","somewhat familiar","posttest","1","","","","","","","","","","","","","","","","",""
"coact-test","59","254545","0.0-59.0","p081","1","0","","","","","","336599.1226666667","","","[""stims/images/bear.png"",""stims/images/jaguar.png"",""stims/images/antelope.png"",""stims/images/narwhal.png"",""stims/images/sloth.png"",""stims/images/pangolin.png"",""stims/images/lobster.png"",""stims/images/pig.png""]","lobster","","somewhat familiar","posttest","1","stims/audio/wheres_lobster.wav","6","stims/images/lobster.png","1","","","","","","","","","","","","",""
"coact-test-prompt","60","255410","0.0-60.0","p081","1","0","","","","","","863","","","[""stims/images/lobster.png"",""stims/images/pig.png"",""stims/images/pangolin.png"",""stims/images/narwhal.png"",""stims/images/jaguar.png"",""stims/images/sloth.png"",""stims/images/antelope.png"",""stims/images/bear.png""]","jaguar","stims/images/jaguar.png","somewhat familiar","posttest","1","","","","","","","","","","","","","","","","",""
"coact-test","61","259251","0.0-61.0","p081","1","0","","","","","","341299.9573333333","","","[""stims/images/lobster.png"",""stims/images/pig.png"",""stims/images/pangolin.png"",""stims/images/narwhal.png"",""stims/images/jaguar.png"",""stims/images/sloth.png"",""stims/images/antelope.png"",""stims/images/bear.png""]","jaguar","","somewhat familiar","posttest","1","stims/audio/wheres_jaguar.wav","4","stims/images/jaguar.png","1","","","","","","","","","","","","",""
"coact-test-prompt","62","261323","0.0-62.0","p081","1","0","","","","","","2071","","","[""stims/images/pig.png"",""stims/images/narwhal.png"",""stims/images/antelope.png"",""stims/images/bear.png"",""stims/images/lobster.png"",""stims/images/jaguar.png"",""stims/images/sloth.png"",""stims/images/pangolin.png""]","antelope","stims/images/antelope.png","somewhat unfamiliar","posttest","1","","","","","","","","","","","","","","","","",""
"coact-test","63","267241","0.0-63.0","p081","1","0","","","","","","349283.0453333333","","","[""stims/images/pig.png"",""stims/images/narwhal.png"",""stims/images/antelope.png"",""stims/images/bear.png"",""stims/images/lobster.png"",""stims/images/jaguar.png"",""stims/images/sloth.png"",""stims/images/pangolin.png""]","antelope","","somewhat unfamiliar","posttest","1","stims/audio/find_antelope.wav","7","stims/images/pangolin.png","0","","","","","","","","","","","","",""
"coact-test-prompt","64","268605","0.0-64.0","p081","1","0","","","","","","1364","","","[""stims/images/jaguar.png"",""stims/images/bear.png"",""stims/images/pig.png"",""stims/images/lobster.png"",""stims/images/narwhal.png"",""stims/images/antelope.png"",""stims/images/sloth.png"",""stims/images/pangolin.png""]","sloth","stims/images/sloth.png","somewhat unfamiliar","posttest","1","","","","","","","","","","","","","","","","",""
"coact-test","65","272400","0.0-65.0","p081","1","0","","","","","","354435.76266666665","","","[""stims/images/jaguar.png"",""stims/images/bear.png"",""stims/images/pig.png"",""stims/images/lobster.png"",""stims/images/narwhal.png"",""stims/images/antelope.png"",""stims/images/sloth.png"",""stims/images/pangolin.png""]","sloth","","somewhat unfamiliar","posttest","1","stims/audio/find_sloth.wav","6","stims/images/sloth.png","1","","","","","","","","","","","","",""
