"trial_type","trial_index","time_elapsed","internal_node_id","subject_id","round_name","round_index","success","timeout","failed_images","failed_audio","failed_video","rt","stimulus","response","images","target","target_image","target_type","round_type","set","test_audio","choice","chosen_image","correct","choices","chosen_images","chosen_items","chosen_audio_items","first_choice_location","chosen_images_in_order","chosen_audio_in_order","chosen_items_in_order","condition","sample_num","chosen_index","chosen_audio","central_images"
"pavlovia","0","3","0.0-0.0","p099","1","0","","","","","","","","","","","","","","","","","","","","","","","","","","","","","","",""
"preload","1","144","0.0-1.0","p099","1","0","true","false","[]","[]","[]","","","","","","","","","","","","","","","","","","","","","","","","","",""
"html-button-response","2","23419","0.0-2.0","p099","1","0","","","","","","23276","","0","","","","","","","","","","","","","","","","","","","","","","",""
"coact-test-prompt","3","29160","0.0-3.0","p099","1","0","","","","","","5738.999999999996","","","[""stims/images/cow.png"",""stims/images/frog.png"",""stims/images/duck.png"",""stims/images/squirrel.png"",""stims/images/butterfly.png"",""stims/images/wolf.png"",""stims/images/cat.png"",""stims/images/horse.png""]","butterfly","stims/images/butterfly.png","familiar","practice_pretest","familiar","","","","","","","","","","","","","","","","",""
"coact-test","4","39047","0.0-4.0","p099","1","0","","","","","","42550.936","","","[""stims/images/cow.png"",""stims/images/frog.png"",""stims/images/duck.png"",""stims/images/squirrel.png"",""stims/images/butterfly.png"",""stims/images/wolf.png"",""stims/images/cat.png"",""stims/images/horse.png""]","butterfly","","familiar","practice_pretest","familiar","stims/audio/find_butterfly.wav","4","stims/images/butterfly.png","1","","","","","","","","","","","","",""
"coact-test-prompt","5","45765","0.0-5.0","p099","1","0","","","","","","6717.000000000007","","","[""stims/images/horse.png"",""stims/images/duck.png"",""stims/images/cow.png"",""stims/images/butterfly.png"",""stims/images/cat.png"",""stims/images/wolf.png"",""stims/images/frog.png"",""stims/images/squirrel.png""]","horse","stims/images/horse.png","familiar","practice_pretest","familiar","","","","","","","","","","","","","","","","",""
"coact-test","6","53221","0.0-6.0","p099","1","0","","","","","","56709.33066666667","","","[""stims/images/horse.png"",""stims/images/duck.png"",""stims/images/cow.png"",""stims/images/butterfly.png"",""stims/images/cat.png"",""stims/images/wolf.png"",""stims/images/frog.png"",""stims/images/squirrel.png""]","horse","","familiar","practice_pretest","familiar","stims/audio/find_horse.wav","0","stims/images/horse.png","1","","","","","","","","","","","","",""
"coact-test-prompt","7","57512","0.0-7.0","p099","1","0","","","","","","4290","","","[""stims/images/cormorant.png"",""stims/images/narwhal.png"",""stims/images/lobster.png"",""stims/images/elephant.png"",""stims/images/dolphin.png"",""stims/images/rabbit.png"",""stims/images/chameleon.png"",""stims/images/lynx.png""]","lobster","stims/images/lobster.png","somewhat familiar","pretest","1","","","","","","","","","","","","","","","","",""
"coact-test","8","63710","0.0-8.0","p099","1","0","","","","","","67187.584","","","[""stims/images/cormorant.png"",""stims/images/narwhal.png"",""stims/images/lobster.png"",""stims/images/elephant.png"",""stims/images/dolphin.png"",""stims/images/rabbit.png"",""stims/images/chameleon.png"",""stims/images/lynx.png""]","lobster","","somewhat familiar","pretest","1","stims/audio/wheres_lobster.wav","2","stims/images/lobster.png","1","","","","","","","","","","","","",""
"coact-test-prompt","9","64816","0.0-9.0","p099","1","0","","","","","","1104","","","[""stims/images/lynx.png"",""stims/images/narwhal.png"",""stims/images/chameleon.png"",""stims/images/cormorant.png"",""stims/images/dolphin.png"",""stims/images/rabbit.png"",""stims/images/elephant.png"",""stims/images/lobster.png""]","narwhal","stims/images/narwhal.png","unfamiliar","pretest","1","","","","","","","","","","","","","","","","",""
"coact-test","10","72254","0.0-10.0","p099","1","0","","","","","","75724.28","","","[""stims/images/lynx.png"",""stims/images/narwhal.png"",""stims/images/chameleon.png"",""stims/images/cormorant.png"",""stims/images/dolphin.png"",""stims/images/rabbit.png"",""stims/images/elephant.png"",""stims/images/lobster.png""]","narwhal","","unfamiliar","pretest","1","stims/audio/find_narwhal.wav","4","stims/images/dolphin.png","0","","","","","","","","","","","","",""
"coact-test-prompt","11","73022","0.0-11.0","p099","1","0","","","","","","767","","","[""stims/images/elephant.png"",""stims/images/cormorant.png"",""stims/images/dolphin.png"",""stims/images/lynx.png"",""stims/images/narwhal.png"",""stims/images/lobster.png"",""stims/images/chameleon.png"",""stims/images/rabbit.png""]","rabbit","stims/images/rabbit.png","familiar","pretest","1","","","","","","","","","","","","","","","","",""
"coact-test","12","76952","0.0-12.0","p099","1","0","","","","","","80414.07466666667","","","[""stims/images/elephant.png"",""stims/images/cormorant.png"",""stims/images/dolphin.png"",""stims/images/lynx.png"",""stims/images/narwhal.png"",""stims/images/lobster.png"",""stims/images/chameleon.png"",""stims/images/rabbit.png""]","rabbit","","familiar","pretest","1","stims/audio/wheres_rabbit.wav","7","stims/images/rabbit.png","1","","","","","","","","","","","","",""
"coact-test-prompt","13","77777","0.0-13.0","p099","1","0","","","","","","824","","","[""stims/images/lobster.png"",""stims/images/elephant.png"",""stims/images/lynx.png"",""stims/images/cormorant.png"",""stims/images/narwhal.png"",""stims/images/chameleon.png"",""stims/images/dolphin.png"",""stims/images/rabbit.png""]","cormorant","stims/images/cormorant.png","unfamiliar","pretest","1","","","","","","","","","","","","","","","","",""
"coact-test","14","84515","0.0-14.0","p099","1","0","","","","","","87972.32","","","[""stims/images/lobster.png"",""stims/images/elephant.png"",""stims/images/lynx.png"",""stims/images/cormorant.png"",""stims/images/narwhal.png"",""stims/images/chameleon.png"",""stims/images/dolphin.png"",""stims/images/rabbit.png""]","cormorant","","unfamiliar","pretest","1","stims/audio/wheres_cormorant.wav","6","stims/images/dolphin.png","0","","","","","","","","","","","","",""
"coact-test-prompt","15","85462","0.0-15.0","p099","1","0","","","","","","945","","","[""stims/images/cormorant.png"",""stims/images/elephant.png"",""stims/images/dolphin.png"",""stims/images/lynx.png"",""stims/images/chameleon.png"",""stims/images/rabbit.png"",""stims/images/lobster.png"",""stims/images/narwhal.png""]","elephant","stims/images/elephant.png","familiar","pretest","1","","","","","","","","","","","","","","","","",""
"coact-test","16","92258","0.0-16.0","p099","1","0","","","","","","95708.63466666666","","","[""stims/images/cormorant.png"",""stims/images/elephant.png"",""stims/images/dolphin.png"",""stims/images/lynx.png"",""stims/images/chameleon.png"",""stims/images/rabbit.png"",""stims/images/lobster.png"",""stims/images/narwhal.png""]","elephant","","familiar","pretest","1","stims/audio/wheres_elephant.wav","1","stims/images/elephant.png","1","","","","","","","","","","","","",""
"coact-test-prompt","17","93244","0.0-17.0","p099","1","0","","","","","","984","","","[""stims/images/rabbit.png"",""stims/images/dolphin.png"",""stims/images/narwhal.png"",""stims/images/elephant.png"",""stims/images/lobster.png"",""stims/images/chameleon.png"",""stims/images/cormorant.png"",""stims/images/lynx.png""]","lynx","stims/images/lynx.png","somewhat unfamiliar","pretest","1","","","","","","","","","","","","","","","","",""
"coact-test","18","106601","0.0-18.0","p099","1","0","","","","","","110045.85333333333","","","[""stims/images/rabbit.png"",""stims/images/dolphin.png"",""stims/images/narwhal.png"",""stims/images/elephant.png"",""stims/images/lobster.png"",""stims/images/chameleon.png"",""stims/images/cormorant.png"",""stims/images/lynx.png""]","lynx","","somewhat unfamiliar","pretest","1","stims/audio/find_lynx.wav","2","stims/images/narwhal.png","0","","","","","","","","","","","","",""
"coact-test-prompt","19","107666","0.0-19.0","p099","1","0","","","","","","1064","","","[""stims/images/lobster.png"",""stims/images/chameleon.png"",""stims/images/cormorant.png"",""stims/images/elephant.png"",""stims/images/narwhal.png"",""stims/images/dolphin.png"",""stims/images/rabbit.png"",""stims/images/lynx.png""]","chameleon","stims/images/chameleon.png","somewhat unfamiliar","pretest","1","","","","","","","","","","","","","","","","",""
"coact-test","20","112346","0.0-20.0","p099","1","0","","","","","","115776.42933333333","","","[""stims/images/lobster.png"",""stims/images/chameleon.png"",""stims/images/cormorant.png"",""stims/images/elephant.png"",""stims/images/narwhal.png"",""stims/images/dolphin.png"",""stims/images/rabbit.png"",""stims/images/lynx.png""]","chameleon","","somewhat unfamiliar","pretest","1","stims/audio/find_chameleon.wav","4","stims/images/narwhal.png","0","","","","","","","","","","","","",""
"coact-test-prompt","21","113244","0.0-21.0","p099","1","0","","","","","","896","","","[""stims/images/lynx.png"",""stims/images/elephant.png"",""stims/images/chameleon.png"",""stims/images/narwhal.png"",""stims/images/cormorant.png"",""stims/images/rabbit.png"",""stims/images/dolphin.png"",""stims/images/lobster.png""]","dolphin","stims/images/dolphin.png","somewhat familiar","pretest","1","","","","","","","","","","","","","","","","",""
"coact-test","22","118914","0.0-22.0","p099","1","0","","","","","","122338.85333333333","","","[""stims/images/lynx.png"",""stims/images/elephant.png"",""stims/images/chameleon.png"",""stims/images/narwhal.png"",""stims/images/cormorant.png"",""stims/images/rabbit.png"",""stims/images/dolphin.png"",""stims/images/lobster.png""]","dolphin","","somewhat familiar","pretest","1","stims/audio/find_dolphin.wav","6","stims/images/dolphin.png","1","","","","","","","","","","","","",""
"html-button-response","23","119230","0.0-23.0","p099","1","0","","","","","","313","","0","","","","","","","","","","","","","","","","","","","","","","",""
"coact-grid","24","151250","0.0-24.0","p099","1","0","","","","","","30711","","","[""stims/images/wolf.png"",""stims/images/cat.png"",""stims/images/horse.png"",""stims/images/duck.png"",""stims/images/squirrel.png"",""stims/images/butterfly.png"",""stims/images/cow.png"",""stims/images/frog.png""]","","","","","familiar","","","","","[6,3]","[""stims/images/cow.png"",""stims/images/duck.png""]","[""cow"",""duck""]","[""stims/audio/thats_cow.wav"",""stims/audio/thats_duck.wav""]","right","[""stims/images/duck.png"",""stims/images/cow.png""]","[""stims/audio/thats_duck.wav"",""stims/audio/thats_cow.wav""]","[""duck"",""cow""]","active","0","","",""
"coact-grid-choice","25","156650","0.0-25.0","p099","1","0","","","","","","5398","","","[""stims/images/wolf.png"",""stims/images/cat.png"",""stims/images/horse.png"",""stims/images/duck.png"",""stims/images/squirrel.png"",""stims/images/butterfly.png"",""stims/images/cow.png"",""stims/images/frog.png""]","","","","","familiar","","","stims/images/cow.png","","","[""stims/images/cow.png"",""stims/images/duck.png""]","","","","[""stims/images/duck.png"",""stims/images/cow.png""]","[""stims/audio/thats_duck.wav"",""stims/audio/thats_cow.wav""]","[""duck"",""cow""]","active","0","1","stims/audio/thats_cow.wav","[""stims/images/duck.png"",""stims/images/cow.png""]"
"coact-grid-choice-audio","26","159664","0.0-26.0","p099","1","0","","","","","","3003","","","[""stims/images/wolf.png"",""stims/images/cat.png"",""stims/images/horse.png"",""stims/images/duck.png"",""stims/images/squirrel.png"",""stims/images/butterfly.png"",""stims/images/cow.png"",""stims/images/frog.png""]","","","","","familiar","","","stims/images/cow.png","","","","","","","","","","active","0","","stims/audio/thats_cow.wav","[""stims/images/duck.png"",""stims/images/cow.png""]"
"coact-grid","27","166725","0.0-27.0","p099","1","0","","","","","","5752","","","[""stims/images/dolphin.png"",""stims/images/cormorant.png"",""stims/images/elephant.png"",""stims/images/lynx.png"",""stims/images/chameleon.png"",""stims/images/narwhal.png"",""stims/images/rabbit.png"",""stims/images/lobster.png""]","","","","","1","","","","","[0,3]","[""stims/images/dolphin.png"",""stims/images/lynx.png""]","[""dolphin"",""lynx""]","[""stims/audio/thats_dolphin.wav"",""stims/audio/thats_lynx.wav""]","left","[""stims/images/dolphin.png"",""stims/images/lynx.png""]","[""stims/audio/thats_dolphin.wav"",""stims/audio/thats_lynx.wav""]","[""dolphin"",""lynx""]","active","0","","",""
"coact-grid-choice","28","168938","0.0-28.0","p099","1","0","","","","","","2212","","","[""stims/images/dolphin.png"",""stims/images/cormorant.png"",""stims/images/elephant.png"",""stims/images/lynx.png"",""stims/images/chameleon.png"",""stims/images/narwhal.png"",""stims/images/rabbit.png"",""stims/images/lobster.png""]","","","","","1","","","stims/images/lynx.png","","","[""stims/images/dolphin.png"",""stims/images/lynx.png""]","","","","[""stims/images/dolphin.png"",""stims/images/lynx.png""]","[""stims/audio/thats_dolphin.wav"",""stims/audio/thats_lynx.wav""]","[""dolphin"",""lynx""]","active","0","1","stims/audio/thats_lynx.wav","[""stims/images/dolphin.png"",""stims/images/lynx.png""]"
"coact-grid-choice-audio","29","171948","0.0-29.0","p099","1","0","","","","","","3000","","","[""stims/images/dolphin.png"",""stims/images/cormorant.png"",""stims/images/elephant.png"",""stims/images/lynx.png"",""stims/images/chameleon.png"",""stims/images/narwhal.png"",""stims/images/rabbit.png"",""stims/images/lobster.png""]","","","","","1","","","stims/images/lynx.png","","","","","","","","","","active","0","","stims/audio/thats_lynx.wav","[""stims/images/dolphin.png"",""stims/images/lynx.png""]"
"coact-grid","30","181183","0.0-30.0","p099","1","0","","","","","","7927","","","[""stims/images/cormorant.png"",""stims/images/chameleon.png"",""stims/images/dolphin.png"",""stims/images/lynx.png"",""stims/images/rabbit.png"",""stims/images/elephant.png"",""stims/images/lobster.png"",""stims/images/narwhal.png""]","","","","","1","","","","","[5,7]","[""stims/images/elephant.png"",""stims/images/narwhal.png""]","[""elephant"",""narwhal""]","[""stims/audio/thats_elephant.wav"",""stims/audio/thats_narwhal.wav""]","right","[""stims/images/narwhal.png"",""stims/images/elephant.png""]","[""stims/audio/thats_narwhal.wav"",""stims/audio/thats_elephant.wav""]","[""narwhal"",""elephant""]","active","1","","",""
"coact-grid-choice","31","183331","0.0-31.0","p099","1","0","","","","","","2146","","","[""stims/images/cormorant.png"",""stims/images/chameleon.png"",""stims/images/dolphin.png"",""stims/images/lynx.png"",""stims/images/rabbit.png"",""stims/images/elephant.png"",""stims/images/lobster.png"",""stims/images/narwhal.png""]","","","","","1","","","stims/images/elephant.png","","","[""stims/images/elephant.png"",""stims/images/narwhal.png""]","","","","[""stims/images/narwhal.png"",""stims/images/elephant.png""]","[""stims/audio/thats_narwhal.wav"",""stims/audio/thats_elephant.wav""]","[""narwhal"",""elephant""]","active","1","1","stims/audio/thats_elephant.wav","[""stims/images/narwhal.png"",""stims/images/elephant.png""]"
"coact-grid-choice-audio","32","186340","0.0-32.0","p099","1","0","","","","","","3000","","","[""stims/images/cormorant.png"",""stims/images/chameleon.png"",""stims/images/dolphin.png"",""stims/images/lynx.png"",""stims/images/rabbit.png"",""stims/images/elephant.png"",""stims/images/lobster.png"",""stims/images/narwhal.png""]","","","","","1","","","stims/images/elephant.png","","","","","","","","","","active","1","","stims/audio/thats_elephant.wav","[""stims/images/narwhal.png"",""stims/images/elephant.png""]"
"coact-grid","33","201952","0.0-33.0","p099","1","0","","","","","","14306","","","[""stims/images/lynx.png"",""stims/images/lobster.png"",""stims/images/dolphin.png"",""stims/images/narwhal.png"",""stims/images/chameleon.png"",""stims/images/cormorant.png"",""stims/images/elephant.png"",""stims/images/rabbit.png""]","","","","","1","","","","","[1,7]","[""stims/images/lobster.png"",""stims/images/rabbit.png""]","[""lobster"",""rabbit""]","[""stims/audio/thats_lobster.wav"",""stims/audio/thats_rabbit.wav""]","left","[""stims/images/lobster.png"",""stims/images/rabbit.png""]","[""stims/audio/thats_lobster.wav"",""stims/audio/thats_rabbit.wav""]","[""lobster"",""rabbit""]","active","2","","",""
"coact-grid-choice","34","203507","0.0-34.0","p099","1","0","","","","","","1555","","","[""stims/images/lynx.png"",""stims/images/lobster.png"",""stims/images/dolphin.png"",""stims/images/narwhal.png"",""stims/images/chameleon.png"",""stims/images/cormorant.png"",""stims/images/elephant.png"",""stims/images/rabbit.png""]","","","","","1","","","stims/images/rabbit.png","","","[""stims/images/lobster.png"",""stims/images/rabbit.png""]","","","","[""stims/images/lobster.png"",""stims/images/rabbit.png""]","[""stims/audio/thats_lobster.wav"",""stims/audio/thats_rabbit.wav""]","[""lobster"",""rabbit""]","active","2","1","stims/audio/thats_rabbit.wav","[""stims/images/lobster.png"",""stims/images/rabbit.png""]"
"coact-grid-choice-audio","35","206513","0.0-35.0","p099","1","0","","","","","","3000","","","[""stims/images/lynx.png"",""stims/images/lobster.png"",""stims/images/dolphin.png"",""stims/images/narwhal.png"",""stims/images/chameleon.png"",""stims/images/cormorant.png"",""stims/images/elephant.png"",""stims/images/rabbit.png""]","","","","","1","","","stims/images/rabbit.png","","","","","","","","","","active","2","","stims/audio/thats_rabbit.wav","[""stims/images/lobster.png"",""stims/images/rabbit.png""]"
"coact-grid","36","215103","0.0-36.0","p099","1","0","","","","","","7287.000000000029","","","[""stims/images/rabbit.png"",""stims/images/cormorant.png"",""stims/images/narwhal.png"",""stims/images/lobster.png"",""stims/images/chameleon.png"",""stims/images/elephant.png"",""stims/images/lynx.png"",""stims/images/dolphin.png""]","","","","","1","","","","","[4,2]","[""stims/images/chameleon.png"",""stims/images/narwhal.png""]","[""chameleon"",""narwhal""]","[""stims/audio/its_chameleon.wav"",""stims/audio/its_narwhal.wav""]","left","[""stims/images/chameleon.png"",""stims/images/narwhal.png""]","[""stims/audio/its_chameleon.wav"",""stims/audio/its_narwhal.wav""]","[""chameleon"",""narwhal""]","active","3","","",""
"coact-grid-choice","37","216575","0.0-37.0","p099","1","0","","","","","","1471","","","[""stims/images/rabbit.png"",""stims/images/cormorant.png"",""stims/images/narwhal.png"",""stims/images/lobster.png"",""stims/images/chameleon.png"",""stims/images/elephant.png"",""stims/images/lynx.png"",""stims/images/dolphin.png""]","","","","","1","","","stims/images/narwhal.png","","","[""stims/images/chameleon.png"",""stims/images/narwhal.png""]","","","","[""stims/images/chameleon.png"",""stims/images/narwhal.png""]","[""stims/audio/its_chameleon.wav"",""stims/audio/its_narwhal.wav""]","[""chameleon"",""narwhal""]","active","3","1","stims/audio/its_narwhal.wav","[""stims/images/chameleon.png"",""stims/images/narwhal.png""]"
"coact-grid-choice-audio","38","219583","0.0-38.0","p099","1","0","","","","","","3003","","","[""stims/images/rabbit.png"",""stims/images/cormorant.png"",""stims/images/narwhal.png"",""stims/images/lobster.png"",""stims/images/chameleon.png"",""stims/images/elephant.png"",""stims/images/lynx.png"",""stims/images/dolphin.png""]","","","","","1","","","stims/images/narwhal.png","","","","","","","","","","active","3","","stims/audio/its_narwhal.wav","[""stims/images/chameleon.png"",""stims/images/narwhal.png""]"
"coact-grid","39","227031","0.0-39.0","p099","1","0","","","","","","6143","","","[""stims/images/lobster.png"",""stims/images/cormorant.png"",""stims/images/narwhal.png"",""stims/images/rabbit.png"",""stims/images/lynx.png"",""stims/images/dolphin.png"",""stims/images/chameleon.png"",""stims/images/elephant.png""]","","","","","1","","","","","[6,1]","[""stims/images/chameleon.png"",""stims/images/cormorant.png""]","[""chameleon"",""cormorant""]","[""stims/audio/its_chameleon.wav"",""stims/audio/its_cormorant.wav""]","right","[""stims/images/cormorant.png"",""stims/images/chameleon.png""]","[""stims/audio/its_cormorant.wav"",""stims/audio/its_chameleon.wav""]","[""cormorant"",""chameleon""]","active","4","","",""
"coact-grid-choice","40","229130","0.0-40.0","p099","1","0","","","","","","2098.999999999971","","","[""stims/images/lobster.png"",""stims/images/cormorant.png"",""stims/images/narwhal.png"",""stims/images/rabbit.png"",""stims/images/lynx.png"",""stims/images/dolphin.png"",""stims/images/chameleon.png"",""stims/images/elephant.png""]","","","","","1","","","stims/images/cormorant.png","","","[""stims/images/chameleon.png"",""stims/images/cormorant.png""]","","","","[""stims/images/cormorant.png"",""stims/images/chameleon.png""]","[""stims/audio/its_cormorant.wav"",""stims/audio/its_chameleon.wav""]","[""cormorant"",""chameleon""]","active","4","0","stims/audio/its_cormorant.wav","[""stims/images/cormorant.png"",""stims/images/chameleon.png""]"
"coact-grid-choice-audio","41","232139","0.0-41.0","p099","1","0","","","","","","3000","","","[""stims/images/lobster.png"",""stims/images/cormorant.png"",""stims/images/narwhal.png"",""stims/images/rabbit.png"",""stims/images/lynx.png"",""stims/images/dolphin.png"",""stims/images/chameleon.png"",""stims/images/elephant.png""]","","","","","1","","","stims/images/cormorant.png","","","","","","","","","","active","4","","stims/audio/its_cormorant.wav","[""stims/images/cormorant.png"",""stims/images/chameleon.png""]"
"coact-grid","42","240512","0.0-42.0","p099","1","0","","","","","","7068.000000000029","","","[""stims/images/rabbit.png"",""stims/images/lobster.png"",""stims/images/narwhal.png"",""stims/images/chameleon.png"",""stims/images/dolphin.png"",""stims/images/cormorant.png"",""stims/images/lynx.png"",""stims/images/elephant.png""]","","","","","1","","","","","[6,0]","[""stims/images/lynx.png"",""stims/images/rabbit.png""]","[""lynx"",""rabbit""]","[""stims/audio/its_lynx.wav"",""stims/audio/its_rabbit.wav""]","right","[""stims/images/rabbit.png"",""stims/images/lynx.png""]","[""stims/audio/its_rabbit.wav"",""stims/audio/its_lynx.wav""]","[""rabbit"",""lynx""]","active","5","","",""
"coact-grid-choice","43","242353","0.0-43.0","p099","1","0","","","","","","1840","","","[""stims/images/rabbit.png"",""stims/images/lobster.png"",""stims/images/narwhal.png"",""stims/images/chameleon.png"",""stims/images/dolphin.png"",""stims/images/cormorant.png"",""stims/images/lynx.png"",""stims/images/elephant.png""]","","","","","1","","","stims/images/lynx.png","","","[""stims/images/lynx.png"",""stims/images/rabbit.png""]","","","","[""stims/images/rabbit.png"",""stims/images/lynx.png""]","[""stims/audio/its_rabbit.wav"",""stims/audio/its_lynx.wav""]","[""rabbit"",""lynx""]","active","5","1","stims/audio/its_lynx.wav","[""stims/images/rabbit.png"",""stims/images/lynx.png""]"
"coact-grid-choice-audio","44","245362","0.0-44.0","p099","1","0","","","","","","3000","","","[""stims/images/rabbit.png"",""stims/images/lobster.png"",""stims/images/narwhal.png"",""stims/images/chameleon.png"",""stims/images/dolphin.png"",""stims/images/cormorant.png"",""stims/images/lynx.png"",""stims/images/elephant.png""]","","","","","1","","","stims/images/lynx.png","","","","","","","","","","active","5","","stims/audio/its_lynx.wav","[""stims/images/rabbit.png"",""stims/images/lynx.png""]"
"html-button-response","45","255598","0.0-45.0","p099","1","0","","","","","","10235.00000000003","","0","","","","","","","","","","","","","","","","","","","","","","",""
"coact-test-prompt","46","260059","0.0-46.0","p099","1","0","","","","","","4460","","","[""stims/images/duck.png"",""stims/images/cat.png"",""stims/images/squirrel.png"",""stims/images/butterfly.png"",""stims/images/horse.png"",""stims/images/frog.png"",""stims/images/wolf.png"",""stims/images/cow.png""]","butterfly","stims/images/butterfly.png","familiar","practice_posttest","familiar","","","","","","","","","","","","","","","","",""
"coact-test","47","263260","0.0-47.0","p099","1","0","","","","","","266559.024","","","[""stims/images/duck.png"",""stims/images/cat.png"",""stims/images/squirrel.png"",""stims/images/butterfly.png"",""stims/images/horse.png"",""stims/images/frog.png"",""stims/images/wolf.png"",""stims/images/cow.png""]","butterfly","","familiar","practice_posttest","familiar","stims/audio/wheres_butterfly.wav","3","stims/images/butterfly.png","1","","","","","","","","","","","","",""
"coact-test-prompt","48","264838","0.0-48.0","p099","1","0","","","","","","1577","","","[""stims/images/duck.png"",""stims/images/cow.png"",""stims/images/frog.png"",""stims/images/horse.png"",""stims/images/cat.png"",""stims/images/squirrel.png"",""stims/images/butterfly.png"",""stims/images/wolf.png""]","horse","stims/images/horse.png","familiar","practice_posttest","familiar","","","","","","","","","","","","","","","","",""
"coact-test","49","267313","0.0-49.0","p099","1","0","","","","","","270607.2453333333","","","[""stims/images/duck.png"",""stims/images/cow.png"",""stims/images/frog.png"",""stims/images/horse.png"",""stims/images/cat.png"",""stims/images/squirrel.png"",""stims/images/butterfly.png"",""stims/images/wolf.png""]","horse","","familiar","practice_posttest","familiar","stims/audio/wheres_horse.wav","3","stims/images/horse.png","1","","","","","","","","","","","","",""
"coact-test-prompt","50","268571","0.0-50.0","p099","1","0","","","","","","1257","","","[""stims/images/dolphin.png"",""stims/images/chameleon.png"",""stims/images/narwhal.png"",""stims/images/cormorant.png"",""stims/images/lobster.png"",""stims/images/lynx.png"",""stims/images/rabbit.png"",""stims/images/elephant.png""]","elephant","stims/images/elephant.png","familiar","posttest","1","","","","","","","","","","","","","","","","",""
"coact-test","51","272253","0.0-51.0","p099","1","0","","","","","","275543.512","","","[""stims/images/dolphin.png"",""stims/images/chameleon.png"",""stims/images/narwhal.png"",""stims/images/cormorant.png"",""stims/images/lobster.png"",""stims/images/lynx.png"",""stims/images/rabbit.png"",""stims/images/elephant.png""]","elephant","","familiar","posttest","1","stims/audio/find_elephant.wav","7","stims/images/elephant.png","1","","","","","","","","","","","","",""
"coact-test-prompt","52","273122","0.0-52.0","p099","1","0","","","","","","868","","","[""stims/images/lobster.png"",""stims/images/cormorant.png"",""stims/images/rabbit.png"",""stims/images/dolphin.png"",""stims/images/elephant.png"",""stims/images/chameleon.png"",""stims/images/lynx.png"",""stims/images/narwhal.png""]","rabbit","stims/images/rabbit.png","familiar","posttest","1","","","","","","","","","","","","","","","","",""
"coact-test","53","278313","0.0-53.0","p099","1","0","","","","","","281598.96","","","[""stims/images/lobster.png"",""stims/images/cormorant.png"",""stims/images/rabbit.png"",""stims/images/dolphin.png"",""stims/images/elephant.png"",""stims/images/chameleon.png"",""stims/images/lynx.png"",""stims/images/narwhal.png""]","rabbit","","familiar","posttest","1","stims/audio/find_rabbit.wav","6","stims/images/lynx.png","0","","","","","","","","","","","","",""
"coact-test-prompt","54","285739","0.0-54.0","p099","1","0","","","","","","7426","","","[""stims/images/dolphin.png"",""stims/images/cormorant.png"",""stims/images/elephant.png"",""stims/images/lynx.png"",""stims/images/narwhal.png"",""stims/images/rabbit.png"",""stims/images/chameleon.png"",""stims/images/lobster.png""]","lobster","stims/images/lobster.png","somewhat familiar","posttest","1","","","","","","","","","","","","","","","","",""
"coact-test","55","294730","0.0-55.0","p099","1","0","","","","","","298005.344","","","[""stims/images/dolphin.png"",""stims/images/cormorant.png"",""stims/images/elephant.png"",""stims/images/lynx.png"",""stims/images/narwhal.png"",""stims/images/rabbit.png"",""stims/images/chameleon.png"",""stims/images/lobster.png""]","lobster","","somewhat familiar","posttest","1","stims/audio/find_lobster.wav","4","stims/images/narwhal.png","0","","","","","","","","","","","","",""
"coact-test-prompt","56","295797","0.0-56.0","p099","1","0","","","","","","1066","","","[""stims/images/elephant.png"",""stims/images/lynx.png"",""stims/images/narwhal.png"",""stims/images/dolphin.png"",""stims/images/cormorant.png"",""stims/images/chameleon.png"",""stims/images/lobster.png"",""stims/images/rabbit.png""]","cormorant","stims/images/cormorant.png","unfamiliar","posttest","1","","","","","","","","","","","","","","","","",""
"coact-test","57","301315","0.0-57.0","p099","1","0","","","","","","304581.28533333336","","","[""stims/images/elephant.png"",""stims/images/lynx.png"",""stims/images/narwhal.png"",""stims/images/dolphin.png"",""stims/images/cormorant.png"",""stims/images/chameleon.png"",""stims/images/lobster.png"",""stims/images/rabbit.png""]","cormorant","","unfamiliar","posttest","1","stims/audio/wheres_cormorant.wav","4","stims/images/cormorant.png","1","","","","","","","","","","","","",""
"coact-test-prompt","58","302199","0.0-58.0","p099","1","0","","","","","","883","","","[""stims/images/lobster.png"",""stims/images/chameleon.png"",""stims/images/cormorant.png"",""stims/images/dolphin.png"",""stims/images/narwhal.png"",""stims/images/elephant.png"",""stims/images/lynx.png"",""stims/images/rabbit.png""]","lynx","stims/images/lynx.png","somewhat unfamiliar","posttest","1","","","","","","","","","","","","","","","","",""
"coact-test","59","308140","0.0-59.0","p099","1","0","","","","","","311399.88533333334","","","[""stims/images/lobster.png"",""stims/images/chameleon.png"",""stims/images/cormorant.png"",""stims/images/dolphin.png"",""stims/images/narwhal.png"",""stims/images/elephant.png"",""stims/images/lynx.png"",""stims/images/rabbit.png""]","lynx","","somewhat unfamiliar","posttest","1","stims/audio/wheres_lynx.wav","3","stims/images/dolphin.png","0","","","","","","","","","","","","",""
"coact-test-prompt","60","309303","0.0-60.0","p099","1","0","","","","","","1162","","","[""stims/images/dolphin.png"",""stims/images/narwhal.png"",""stims/images/elephant.png"",""stims/images/lobster.png"",""stims/images/chameleon.png"",""stims/images/rabbit.png"",""stims/images/lynx.png"",""stims/images/cormorant.png""]","chameleon","stims/images/chameleon.png","somewhat unfamiliar","posttest","1","","","","","","","","","","","","","","","","",""
"coact-test","61","312873","0.0-61.0","p099","1","0","","","","","","316125.78133333335","","","[""stims/images/dolphin.png"",""stims/images/narwhal.png"",""stims/images/elephant.png"",""stims/images/lobster.png"",""stims/images/chameleon.png"",""stims/images/rabbit.png"",""stims/images/lynx.png"",""stims/images/cormorant.png""]","chameleon","","somewhat unfamiliar","posttest","1","stims/audio/wheres_chameleon.wav","4","stims/images/chameleon.png","1","","","","","","","","","","","","",""
"coact-test-prompt","62","313855","0.0-62.0","p099","1","0","","","","","","977.9999999999418","","","[""stims/images/lynx.png"",""stims/images/rabbit.png"",""stims/images/elephant.png"",""stims/images/chameleon.png"",""stims/images/lobster.png"",""stims/images/dolphin.png"",""stims/images/cormorant.png"",""stims/images/narwhal.png""]","dolphin","stims/images/dolphin.png","somewhat familiar","posttest","1","","","","","","","","","","","","","","","","",""
"coact-test","63","316699","0.0-63.0","p099","1","0","","","","","","319947.2266666667","","","[""stims/images/lynx.png"",""stims/images/rabbit.png"",""stims/images/elephant.png"",""stims/images/chameleon.png"",""stims/images/lobster.png"",""stims/images/dolphin.png"",""stims/images/cormorant.png"",""stims/images/narwhal.png""]","dolphin","","somewhat familiar","posttest","1","stims/audio/wheres_dolphin.wav","5","stims/images/dolphin.png","1","","","","","","","","","","","","",""
"coact-test-prompt","64","317665","0.0-64.0","p099","1","0","","","","","","965","","","[""stims/images/lobster.png"",""stims/images/cormorant.png"",""stims/images/chameleon.png"",""stims/images/narwhal.png"",""stims/images/lynx.png"",""stims/images/dolphin.png"",""stims/images/elephant.png"",""stims/images/rabbit.png""]","narwhal","stims/images/narwhal.png","unfamiliar","posttest","1","","","","","","","","","","","","","","","","",""
"coact-test","65","321443","0.0-65.0","p099","1","0","","","","","","324687.41866666666","","","[""stims/images/lobster.png"",""stims/images/cormorant.png"",""stims/images/chameleon.png"",""stims/images/narwhal.png"",""stims/images/lynx.png"",""stims/images/dolphin.png"",""stims/images/elephant.png"",""stims/images/rabbit.png""]","narwhal","","unfamiliar","posttest","1","stims/audio/find_narwhal.wav","2","stims/images/chameleon.png","0","","","","","","","","","","","","",""
