"trial_type","trial_index","time_elapsed","internal_node_id","subject_id","round_name","round_index","success","timeout","failed_images","failed_audio","failed_video","rt","stimulus","response","images","target","target_image","target_type","round_type","set","test_audio","choice","chosen_image","correct","choices","chosen_images","chosen_items","chosen_audio_items","first_choice_location","chosen_images_in_order","chosen_audio_in_order","chosen_items_in_order","condition","sample_num","chosen_index","chosen_audio","central_images"
"pavlovia","0","3","0.0-0.0","p074","1","0","","","","","","","","","","","","","","","","","","","","","","","","","","","","","","",""
"preload","1","328","0.0-1.0","p074","1","0","true","false","[]","[]","[]","","","","","","","","","","","","","","","","","","","","","","","","","",""
"html-button-response","2","32647","0.0-2.0","p074","1","0","","","","","","32319","","0","","","","","","","","","","","","","","","","","","","","","","",""
"coact-test-prompt","3","37052","0.0-3.0","p074","1","0","","","","","","4403","","","[""stims/images/squirrel.png"",""stims/images/horse.png"",""stims/images/butterfly.png"",""stims/images/cat.png"",""stims/images/frog.png"",""stims/images/cow.png"",""stims/images/duck.png"",""stims/images/wolf.png""]","squirrel","stims/images/squirrel.png","familiar","practice_pretest","familiar","","","","","","","","","","","","","","","","",""
"coact-test","4","41295","0.0-4.0","p074","1","0","","","","","","219370.24","","","[""stims/images/squirrel.png"",""stims/images/horse.png"",""stims/images/butterfly.png"",""stims/images/cat.png"",""stims/images/frog.png"",""stims/images/cow.png"",""stims/images/duck.png"",""stims/images/wolf.png""]","squirrel","","familiar","practice_pretest","familiar","stims/audio/find_squirrel.wav","0","stims/images/squirrel.png","1","","","","","","","","","","","","",""
"coact-test-prompt","5","43380","0.0-5.0","p074","1","0","","","","","","2085","","","[""stims/images/squirrel.png"",""stims/images/wolf.png"",""stims/images/cat.png"",""stims/images/butterfly.png"",""stims/images/horse.png"",""stims/images/frog.png"",""stims/images/cow.png"",""stims/images/duck.png""]","cow","stims/images/cow.png","familiar","practice_pretest","familiar","","","","","","","","","","","","","","","","",""
"coact-test","6","47310","0.0-6.0","p074","1","0","","","","","","225385.912","","","[""stims/images/squirrel.png"",""stims/images/wolf.png"",""stims/images/cat.png"",""stims/images/butterfly.png"",""stims/images/horse.png"",""stims/images/frog.png"",""stims/images/cow.png"",""stims/images/duck.png""]","cow","","familiar","practice_pretest","familiar","stims/audio/find_cow.wav","6","stims/images/cow.png","1","","","","","","","","","","","","",""
"coact-test-prompt","7","48917","0.0-7.0","p074","1","0","","","","","","1605.999999999971","","","[""stims/images/tapir.png"",""stims/images/elephant.png"",""stims/images/dolphin.png"",""stims/images/jaguar.png"",""stims/images/lynx.png"",""stims/images/aardvark.png"",""stims/images/zebra.png"",""stims/images/nyala.png""]","zebra","stims/images/zebra.png","familiar","pretest","1","","","","","","","","","","","","","","","","",""
"coact-test","8","52152","0.0-8.0","p074","1","0","","","","","","230223.37866666666","","","[""stims/images/tapir.png"",""stims/images/elephant.png"",""stims/images/dolphin.png"",""stims/images/jaguar.png"",""stims/images/lynx.png"",""stims/images/aardvark.png"",""stims/images/zebra.png"",""stims/images/nyala.png""]","zebra","","familiar","pretest","1","stims/audio/wheres_zebra.wav","6","stims/images/zebra.png","1","","","","","","","","","","","","",""
"coact-test-prompt","9","53277","0.0-9.0","p074","1","0","","","","","","1124","","","[""stims/images/lynx.png"",""stims/images/dolphin.png"",""stims/images/nyala.png"",""stims/images/zebra.png"",""stims/images/aardvark.png"",""stims/images/elephant.png"",""stims/images/tapir.png"",""stims/images/jaguar.png""]","aardvark","stims/images/aardvark.png","somewhat unfamiliar","pretest","1","","","","","","","","","","","","","","","","",""
"coact-test","10","60066","0.0-10.0","p074","1","0","","","","","","238131.01866666667","","","[""stims/images/lynx.png"",""stims/images/dolphin.png"",""stims/images/nyala.png"",""stims/images/zebra.png"",""stims/images/aardvark.png"",""stims/images/elephant.png"",""stims/images/tapir.png"",""stims/images/jaguar.png""]","aardvark","","somewhat unfamiliar","pretest","1","stims/audio/find_aardvark.wav","4","stims/images/aardvark.png","1","","","","","","","","","","","","",""
"coact-test-prompt","11","62479","0.0-11.0","p074","1","0","","","","","","2412.999999999971","","","[""stims/images/jaguar.png"",""stims/images/zebra.png"",""stims/images/nyala.png"",""stims/images/elephant.png"",""stims/images/dolphin.png"",""stims/images/lynx.png"",""stims/images/tapir.png"",""stims/images/aardvark.png""]","dolphin","stims/images/dolphin.png","somewhat familiar","pretest","1","","","","","","","","","","","","","","","","",""
"coact-test","12","65702","0.0-12.0","p074","1","0","","","","","","243759.816","","","[""stims/images/jaguar.png"",""stims/images/zebra.png"",""stims/images/nyala.png"",""stims/images/elephant.png"",""stims/images/dolphin.png"",""stims/images/lynx.png"",""stims/images/tapir.png"",""stims/images/aardvark.png""]","dolphin","","somewhat familiar","pretest","1","stims/audio/wheres_dolphin.wav","4","stims/images/dolphin.png","1","","","","","","","","","","","","",""
"coact-test-prompt","13","66579","0.0-13.0","p074","1","0","","","","","","875","","","[""stims/images/jaguar.png"",""stims/images/dolphin.png"",""stims/images/tapir.png"",""stims/images/lynx.png"",""stims/images/aardvark.png"",""stims/images/elephant.png"",""stims/images/zebra.png"",""stims/images/nyala.png""]","tapir","stims/images/tapir.png","unfamiliar","pretest","1","","","","","","","","","","","","","","","","",""
"coact-test","14","70573","0.0-14.0","p074","1","0","","","","","","248626.71466666667","","","[""stims/images/jaguar.png"",""stims/images/dolphin.png"",""stims/images/tapir.png"",""stims/images/lynx.png"",""stims/images/aardvark.png"",""stims/images/elephant.png"",""stims/images/zebra.png"",""stims/images/nyala.png""]","tapir","","unfamiliar","pretest","1","stims/audio/wheres_tapir.wav","2","stims/images/tapir.png","1","","","","","","","","","","","","",""
"coact-test-prompt","15","72379","0.0-15.0","p074","1","0","","","","","","1805","","","[""stims/images/elephant.png"",""stims/images/jaguar.png"",""stims/images/tapir.png"",""stims/images/dolphin.png"",""stims/images/nyala.png"",""stims/images/zebra.png"",""stims/images/lynx.png"",""stims/images/aardvark.png""]","lynx","stims/images/lynx.png","somewhat unfamiliar","pretest","1","","","","","","","","","","","","","","","","",""
"coact-test","16","75585","0.0-16.0","p074","1","0","","","","","","253632.91733333335","","","[""stims/images/elephant.png"",""stims/images/jaguar.png"",""stims/images/tapir.png"",""stims/images/dolphin.png"",""stims/images/nyala.png"",""stims/images/zebra.png"",""stims/images/lynx.png"",""stims/images/aardvark.png""]","lynx","","somewhat unfamiliar","pretest","1","stims/audio/wheres_lynx.wav","6","stims/images/lynx.png","1","","","","","","","","","","","","",""
"coact-test-prompt","17","76686","0.0-17.0","p074","1","0","","","","","","1099","","","[""stims/images/jaguar.png"",""stims/images/tapir.png"",""stims/images/lynx.png"",""stims/images/nyala.png"",""stims/images/elephant.png"",""stims/images/dolphin.png"",""stims/images/aardvark.png"",""stims/images/zebra.png""]","elephant","stims/images/elephant.png","familiar","pretest","1","","","","","","","","","","","","","","","","",""
"coact-test","18","80704","0.0-18.0","p074","1","0","","","","","","258747.61066666667","","","[""stims/images/jaguar.png"",""stims/images/tapir.png"",""stims/images/lynx.png"",""stims/images/nyala.png"",""stims/images/elephant.png"",""stims/images/dolphin.png"",""stims/images/aardvark.png"",""stims/images/zebra.png""]","elephant","","familiar","pretest","1","stims/audio/find_elephant.wav","4","stims/images/elephant.png","1","","","","","","","","","","","","",""
"coact-test-prompt","19","81686","0.0-19.0","p074","1","0","","","","","","981","","","[""stims/images/jaguar.png"",""stims/images/dolphin.png"",""stims/images/lynx.png"",""stims/images/aardvark.png"",""stims/images/elephant.png"",""stims/images/zebra.png"",""stims/images/tapir.png"",""stims/images/nyala.png""]","jaguar","stims/images/jaguar.png","somewhat familiar","pretest","1","","","","","","","","","","","","","","","","",""
"coact-test","20","84547","0.0-20.0","p074","1","0","","","","","","262585.60800000007","","","[""stims/images/jaguar.png"",""stims/images/dolphin.png"",""stims/images/lynx.png"",""stims/images/aardvark.png"",""stims/images/elephant.png"",""stims/images/zebra.png"",""stims/images/tapir.png"",""stims/images/nyala.png""]","jaguar","","somewhat familiar","pretest","1","stims/audio/find_jaguar.wav","0","stims/images/jaguar.png","1","","","","","","","","","","","","",""
"coact-test-prompt","21","86120","0.0-21.0","p074","1","0","","","","","","1572","","","[""stims/images/dolphin.png"",""stims/images/aardvark.png"",""stims/images/elephant.png"",""stims/images/zebra.png"",""stims/images/lynx.png"",""stims/images/tapir.png"",""stims/images/jaguar.png"",""stims/images/nyala.png""]","nyala","stims/images/nyala.png","unfamiliar","pretest","1","","","","","","","","","","","","","","","","",""
"coact-test","22","89515","0.0-22.0","p074","1","0","","","","","","267550.176","","","[""stims/images/dolphin.png"",""stims/images/aardvark.png"",""stims/images/elephant.png"",""stims/images/zebra.png"",""stims/images/lynx.png"",""stims/images/tapir.png"",""stims/images/jaguar.png"",""stims/images/nyala.png""]","nyala","","unfamiliar","pretest","1","stims/audio/find_nyala.wav","7","stims/images/nyala.png","1","","","","","","","","","","","","",""
"html-button-response","23","120149","0.0-23.0","p074","1","0","","","","","","30633","","0","","","","","","","","","","","","","","","","","","","","","","",""
"coact-grid","24","126203","0.0-24.0","p074","1","0","","","","","","4746","","","[""stims/images/squirrel.png"",""stims/images/duck.png"",""stims/images/cat.png"",""stims/images/horse.png"",""stims/images/butterfly.png"",""stims/images/wolf.png"",""stims/images/cow.png"",""stims/images/frog.png""]","","","","","familiar","","","","","[2,0]","[""stims/images/cat.png"",""stims/images/squirrel.png""]","[""cat"",""squirrel""]","[""stims/audio/its_cat.wav"",""stims/audio/its_squirrel.wav""]","left","[""stims/images/cat.png"",""stims/images/squirrel.png""]","[""stims/audio/its_cat.wav"",""stims/audio/its_squirrel.wav""]","[""cat"",""squirrel""]","passive","0","","",""
"coact-grid-choice","25","129753","0.0-25.0","p074","1","0","","","","","","3548","","","[""stims/images/squirrel.png"",""stims/images/duck.png"",""stims/images/cat.png"",""stims/images/horse.png"",""stims/images/butterfly.png"",""stims/images/wolf.png"",""stims/images/cow.png"",""stims/images/frog.png""]","","","","","familiar","","","stims/images/cat.png","","","[""stims/images/cat.png"",""stims/images/squirrel.png""]","","","","[""stims/images/cat.png"",""stims/images/squirrel.png""]","[""stims/audio/its_cat.wav"",""stims/audio/its_squirrel.wav""]","[""cat"",""squirrel""]","active","0","0","stims/audio/its_cat.wav","[""stims/images/cat.png"",""stims/images/squirrel.png""]"
"coact-grid-choice-audio","26","132766","0.0-26.0","p074","1","0","","","","","","3003","","","[""stims/images/squirrel.png"",""stims/images/duck.png"",""stims/images/cat.png"",""stims/images/horse.png"",""stims/images/butterfly.png"",""stims/images/wolf.png"",""stims/images/cow.png"",""stims/images/frog.png""]","","","","","familiar","","","stims/images/cat.png","","","","","","","","","","active","0","","stims/audio/its_cat.wav","[""stims/images/cat.png"",""stims/images/squirrel.png""]"
"coact-grid","27","138418","0.0-27.0","p074","1","0","","","","","","4344","","","[""stims/images/elephant.png"",""stims/images/zebra.png"",""stims/images/dolphin.png"",""stims/images/lynx.png"",""stims/images/jaguar.png"",""stims/images/nyala.png"",""stims/images/tapir.png"",""stims/images/aardvark.png""]","","","","","1","","","","","[4,2]","[""stims/images/jaguar.png"",""stims/images/dolphin.png""]","[""jaguar"",""dolphin""]","[""stims/audio/thats_jaguar.wav"",""stims/audio/thats_dolphin.wav""]","right","[""stims/images/dolphin.png"",""stims/images/jaguar.png""]","[""stims/audio/thats_dolphin.wav"",""stims/audio/thats_jaguar.wav""]","[""dolphin"",""jaguar""]","passive","0","","",""
"coact-grid-choice","28","139909","0.0-28.0","p074","1","0","","","","","","1490","","","[""stims/images/elephant.png"",""stims/images/zebra.png"",""stims/images/dolphin.png"",""stims/images/lynx.png"",""stims/images/jaguar.png"",""stims/images/nyala.png"",""stims/images/tapir.png"",""stims/images/aardvark.png""]","","","","","1","","","stims/images/jaguar.png","","","[""stims/images/jaguar.png"",""stims/images/dolphin.png""]","","","","[""stims/images/dolphin.png"",""stims/images/jaguar.png""]","[""stims/audio/thats_dolphin.wav"",""stims/audio/thats_jaguar.wav""]","[""dolphin"",""jaguar""]","active","0","1","stims/audio/thats_jaguar.wav","[""stims/images/dolphin.png"",""stims/images/jaguar.png""]"
"coact-grid-choice-audio","29","142919","0.0-29.0","p074","1","0","","","","","","3003","","","[""stims/images/elephant.png"",""stims/images/zebra.png"",""stims/images/dolphin.png"",""stims/images/lynx.png"",""stims/images/jaguar.png"",""stims/images/nyala.png"",""stims/images/tapir.png"",""stims/images/aardvark.png""]","","","","","1","","","stims/images/jaguar.png","","","","","","","","","","active","0","","stims/audio/thats_jaguar.wav","[""stims/images/dolphin.png"",""stims/images/jaguar.png""]"
"coact-grid","30","147924","0.0-30.0","p074","1","0","","","","","","3696","","","[""stims/images/zebra.png"",""stims/images/aardvark.png"",""stims/images/nyala.png"",""stims/images/elephant.png"",""stims/images/dolphin.png"",""stims/images/lynx.png"",""stims/images/jaguar.png"",""stims/images/tapir.png""]","","","","","1","","","","","[4,6]","[""stims/images/dolphin.png"",""stims/images/jaguar.png""]","[""dolphin"",""jaguar""]","[""stims/audio/its_dolphin.wav"",""stims/audio/its_jaguar.wav""]","left","[""stims/images/dolphin.png"",""stims/images/jaguar.png""]","[""stims/audio/its_dolphin.wav"",""stims/audio/its_jaguar.wav""]","[""dolphin"",""jaguar""]","passive","1","","",""
"coact-grid-choice","31","150215","0.0-31.0","p074","1","0","","","","","","2289.000000000058","","","[""stims/images/zebra.png"",""stims/images/aardvark.png"",""stims/images/nyala.png"",""stims/images/elephant.png"",""stims/images/dolphin.png"",""stims/images/lynx.png"",""stims/images/jaguar.png"",""stims/images/tapir.png""]","","","","","1","","","stims/images/dolphin.png","","","[""stims/images/dolphin.png"",""stims/images/jaguar.png""]","","","","[""stims/images/dolphin.png"",""stims/images/jaguar.png""]","[""stims/audio/its_dolphin.wav"",""stims/audio/its_jaguar.wav""]","[""dolphin"",""jaguar""]","active","1","0","stims/audio/its_dolphin.wav","[""stims/images/dolphin.png"",""stims/images/jaguar.png""]"
"coact-grid-choice-audio","32","153229","0.0-32.0","p074","1","0","","","","","","3000","","","[""stims/images/zebra.png"",""stims/images/aardvark.png"",""stims/images/nyala.png"",""stims/images/elephant.png"",""stims/images/dolphin.png"",""stims/images/lynx.png"",""stims/images/jaguar.png"",""stims/images/tapir.png""]","","","","","1","","","stims/images/dolphin.png","","","","","","","","","","active","1","","stims/audio/its_dolphin.wav","[""stims/images/dolphin.png"",""stims/images/jaguar.png""]"
"coact-grid","33","157696","0.0-33.0","p074","1","0","","","","","","3158","","","[""stims/images/jaguar.png"",""stims/images/lynx.png"",""stims/images/zebra.png"",""stims/images/dolphin.png"",""stims/images/elephant.png"",""stims/images/tapir.png"",""stims/images/aardvark.png"",""stims/images/nyala.png""]","","","","","1","","","","","[2,6]","[""stims/images/zebra.png"",""stims/images/aardvark.png""]","[""zebra"",""aardvark""]","[""stims/audio/its_zebra.wav"",""stims/audio/its_aardvark.wav""]","left","[""stims/images/zebra.png"",""stims/images/aardvark.png""]","[""stims/audio/its_zebra.wav"",""stims/audio/its_aardvark.wav""]","[""zebra"",""aardvark""]","passive","2","","",""
"coact-grid-choice","34","158936","0.0-34.0","p074","1","0","","","","","","1238","","","[""stims/images/jaguar.png"",""stims/images/lynx.png"",""stims/images/zebra.png"",""stims/images/dolphin.png"",""stims/images/elephant.png"",""stims/images/tapir.png"",""stims/images/aardvark.png"",""stims/images/nyala.png""]","","","","","1","","","stims/images/aardvark.png","","","[""stims/images/zebra.png"",""stims/images/aardvark.png""]","","","","[""stims/images/zebra.png"",""stims/images/aardvark.png""]","[""stims/audio/its_zebra.wav"",""stims/audio/its_aardvark.wav""]","[""zebra"",""aardvark""]","active","2","1","stims/audio/its_aardvark.wav","[""stims/images/zebra.png"",""stims/images/aardvark.png""]"
"coact-grid-choice-audio","35","161945","0.0-35.0","p074","1","0","","","","","","3000","","","[""stims/images/jaguar.png"",""stims/images/lynx.png"",""stims/images/zebra.png"",""stims/images/dolphin.png"",""stims/images/elephant.png"",""stims/images/tapir.png"",""stims/images/aardvark.png"",""stims/images/nyala.png""]","","","","","1","","","stims/images/aardvark.png","","","","","","","","","","active","2","","stims/audio/its_aardvark.wav","[""stims/images/zebra.png"",""stims/images/aardvark.png""]"
"coact-grid","36","165642","0.0-36.0","p074","1","0","","","","","","2389","","","[""stims/images/jaguar.png"",""stims/images/dolphin.png"",""stims/images/aardvark.png"",""stims/images/lynx.png"",""stims/images/tapir.png"",""stims/images/elephant.png"",""stims/images/zebra.png"",""stims/images/nyala.png""]","","","","","1","","","","","[1,4]","[""stims/images/dolphin.png"",""stims/images/tapir.png""]","[""dolphin"",""tapir""]","[""stims/audio/thats_dolphin.wav"",""stims/audio/thats_tapir.wav""]","right","[""stims/images/tapir.png"",""stims/images/dolphin.png""]","[""stims/audio/thats_tapir.wav"",""stims/audio/thats_dolphin.wav""]","[""tapir"",""dolphin""]","passive","3","","",""
"coact-grid-choice","37","167492","0.0-37.0","p074","1","0","","","","","","1848","","","[""stims/images/jaguar.png"",""stims/images/dolphin.png"",""stims/images/aardvark.png"",""stims/images/lynx.png"",""stims/images/tapir.png"",""stims/images/elephant.png"",""stims/images/zebra.png"",""stims/images/nyala.png""]","","","","","1","","","stims/images/tapir.png","","","[""stims/images/dolphin.png"",""stims/images/tapir.png""]","","","","[""stims/images/tapir.png"",""stims/images/dolphin.png""]","[""stims/audio/thats_tapir.wav"",""stims/audio/thats_dolphin.wav""]","[""tapir"",""dolphin""]","active","3","0","stims/audio/thats_tapir.wav","[""stims/images/tapir.png"",""stims/images/dolphin.png""]"
"coact-grid-choice-audio","38","170500","0.0-38.0","p074","1","0","","","","","","3000","","","[""stims/images/jaguar.png"",""stims/images/dolphin.png"",""stims/images/aardvark.png"",""stims/images/lynx.png"",""stims/images/tapir.png"",""stims/images/elephant.png"",""stims/images/zebra.png"",""stims/images/nyala.png""]","","","","","1","","","stims/images/tapir.png","","","","","","","","","","active","3","","stims/audio/thats_tapir.wav","[""stims/images/tapir.png"",""stims/images/dolphin.png""]"
"coact-grid","39","175517","0.0-39.0","p074","1","0","","","","","","3706","","","[""stims/images/tapir.png"",""stims/images/aardvark.png"",""stims/images/dolphin.png"",""stims/images/nyala.png"",""stims/images/jaguar.png"",""stims/images/zebra.png"",""stims/images/elephant.png"",""stims/images/lynx.png""]","","","","","1","","","","","[2,3]","[""stims/images/dolphin.png"",""stims/images/nyala.png""]","[""dolphin"",""nyala""]","[""stims/audio/thats_dolphin.wav"",""stims/audio/thats_nyala.wav""]","right","[""stims/images/nyala.png"",""stims/images/dolphin.png""]","[""stims/audio/thats_nyala.wav"",""stims/audio/thats_dolphin.wav""]","[""nyala"",""dolphin""]","passive","4","","",""
"coact-grid-choice","40","177732","0.0-40.0","p074","1","0","","","","","","2213","","","[""stims/images/tapir.png"",""stims/images/aardvark.png"",""stims/images/dolphin.png"",""stims/images/nyala.png"",""stims/images/jaguar.png"",""stims/images/zebra.png"",""stims/images/elephant.png"",""stims/images/lynx.png""]","","","","","1","","","stims/images/nyala.png","","","[""stims/images/dolphin.png"",""stims/images/nyala.png""]","","","","[""stims/images/nyala.png"",""stims/images/dolphin.png""]","[""stims/audio/thats_nyala.wav"",""stims/audio/thats_dolphin.wav""]","[""nyala"",""dolphin""]","active","4","0","stims/audio/thats_nyala.wav","[""stims/images/nyala.png"",""stims/images/dolphin.png""]"
"coact-grid-choice-audio","41","180741","0.0-41.0","p074","1","0","","","","","","3000","","","[""stims/images/tapir.png"",""stims/images/aardvark.png"",""stims/images/dolphin.png"",""stims/images/nyala.png"",""stims/images/jaguar.png"",""stims/images/zebra.png"",""stims/images/elephant.png"",""stims/images/lynx.png""]","","","","","1","","","stims/images/nyala.png","","","","","","","","","","active","4","","stims/audio/thats_nyala.wav","[""stims/images/nyala.png"",""stims/images/dolphin.png""]"
"coact-grid","42","185514","0.0-42.0","p074","1","0","","","","","","3468","","","[""stims/images/aardvark.png"",""stims/images/elephant.png"",""stims/images/jaguar.png"",""stims/images/nyala.png"",""stims/images/dolphin.png"",""stims/images/tapir.png"",""stims/images/zebra.png"",""stims/images/lynx.png""]","","","","","1","","","","","[4,3]","[""stims/images/dolphin.png"",""stims/images/nyala.png""]","[""dolphin"",""nyala""]","[""stims/audio/its_dolphin.wav"",""stims/audio/its_nyala.wav""]","left","[""stims/images/dolphin.png"",""stims/images/nyala.png""]","[""stims/audio/its_dolphin.wav"",""stims/audio/its_nyala.wav""]","[""dolphin"",""nyala""]","passive","5","","",""
"coact-grid-choice","43","187954","0.0-43.0","p074","1","0","","","","","","2438","","","[""stims/images/aardvark.png"",""stims/images/elephant.png"",""stims/images/jaguar.png"",""stims/images/nyala.png"",""stims/images/dolphin.png"",""stims/images/tapir.png"",""stims/images/zebra.png"",""stims/images/lynx.png""]","","","","","1","","","stims/images/dolphin.png","","","[""stims/images/dolphin.png"",""stims/images/nyala.png""]","","","","[""stims/images/dolphin.png"",""stims/images/nyala.png""]","[""stims/audio/its_dolphin.wav"",""stims/audio/its_nyala.wav""]","[""dolphin"",""nyala""]","active","5","0","stims/audio/its_dolphin.wav","[""stims/images/dolphin.png"",""stims/images/nyala.png""]"
"coact-grid-choice-audio","44","190966","0.0-44.0","p074","1","0","","","","","","3000","","","[""stims/images/aardvark.png"",""stims/images/elephant.png"",""stims/images/jaguar.png"",""stims/images/nyala.png"",""stims/images/dolphin.png"",""stims/images/tapir.png"",""stims/images/zebra.png"",""stims/images/lynx.png""]","","","","","1","","","stims/images/dolphin.png","","","","","","","","","","active","5","","stims/audio/its_dolphin.wav","[""stims/images/dolphin.png"",""stims/images/nyala.png""]"
"html-button-response","45","206025","0.0-45.0","p074","1","0","","","","","","15057","","0","","","","","","","","","","","","","","","","","","","","","","",""
"coact-test-prompt","46","208056","0.0-46.0","p074","1","0","","","","","","2030","","","[""stims/images/butterfly.png"",""stims/images/cow.png"",""stims/images/horse.png"",""stims/images/duck.png"",""stims/images/frog.png"",""stims/images/squirrel.png"",""stims/images/wolf.png"",""stims/images/cat.png""]","squirrel","stims/images/squirrel.png","familiar","practice_posttest","familiar","","","","","","","","","","","","","","","","",""
"coact-test","47","211139","0.0-47.0","p074","1","0","","","","","","389057.24","","","[""stims/images/butterfly.png"",""stims/images/cow.png"",""stims/images/horse.png"",""stims/images/duck.png"",""stims/images/frog.png"",""stims/images/squirrel.png"",""stims/images/wolf.png"",""stims/images/cat.png""]","squirrel","","familiar","practice_posttest","familiar","stims/audio/wheres_squirrel.wav","5","stims/images/squirrel.png","1","","","","","","","","","","","","",""
"coact-test-prompt","48","212353","0.0-48.0","p074","1","0","","","","","","1213","","","[""stims/images/horse.png"",""stims/images/cow.png"",""stims/images/cat.png"",""stims/images/butterfly.png"",""stims/images/duck.png"",""stims/images/frog.png"",""stims/images/wolf.png"",""stims/images/squirrel.png""]","cow","stims/images/cow.png","familiar","practice_posttest","familiar","","","","","","","","","","","","","","","","",""
"coact-test","49","215541","0.0-49.0","p074","1","0","","","","","","393454.9440000001","","","[""stims/images/horse.png"",""stims/images/cow.png"",""stims/images/cat.png"",""stims/images/butterfly.png"",""stims/images/duck.png"",""stims/images/frog.png"",""stims/images/wolf.png"",""stims/images/squirrel.png""]","cow","","familiar","practice_posttest","familiar","stims/audio/find_cow.wav","1","stims/images/cow.png","1","","","","","","","","","","","","",""
"coact-test-prompt","50","216524","0.0-50.0","p074","1","0","","","","","","982","","","[""stims/images/lynx.png"",""stims/images/nyala.png"",""stims/images/jaguar.png"",""stims/images/tapir.png"",""stims/images/zebra.png"",""stims/images/elephant.png"",""stims/images/aardvark.png"",""stims/images/dolphin.png""]","tapir","stims/images/tapir.png","unfamiliar","posttest","1","","","","","","","","","","","","","","","","",""
"coact-test","51","219557","0.0-51.0","p074","1","0","","","","","","397466.7733333333","","","[""stims/images/lynx.png"",""stims/images/nyala.png"",""stims/images/jaguar.png"",""stims/images/tapir.png"",""stims/images/zebra.png"",""stims/images/elephant.png"",""stims/images/aardvark.png"",""stims/images/dolphin.png""]","tapir","","unfamiliar","posttest","1","stims/audio/find_tapir.wav","3","stims/images/tapir.png","1","","","","","","","","","","","","",""
"coact-test-prompt","52","222077","0.0-52.0","p074","1","0","","","","","","2518.999999999942","","","[""stims/images/tapir.png"",""stims/images/elephant.png"",""stims/images/lynx.png"",""stims/images/jaguar.png"",""stims/images/zebra.png"",""stims/images/nyala.png"",""stims/images/dolphin.png"",""stims/images/aardvark.png""]","lynx","stims/images/lynx.png","somewhat unfamiliar","posttest","1","","","","","","","","","","","","","","","","",""
"coact-test","53","225004","0.0-53.0","p074","1","0","","","","","","402909.22133333335","","","[""stims/images/tapir.png"",""stims/images/elephant.png"",""stims/images/lynx.png"",""stims/images/jaguar.png"",""stims/images/zebra.png"",""stims/images/nyala.png"",""stims/images/dolphin.png"",""stims/images/aardvark.png""]","lynx","","somewhat unfamiliar","posttest","1","stims/audio/wheres_lynx.wav","2","stims/images/lynx.png","1","","","","","","","","","","","","",""
"coact-test-prompt","54","226106","0.0-54.0","p074","1","0","","","","","","1100","","","[""stims/images/jaguar.png"",""stims/images/zebra.png"",""stims/images/elephant.png"",""stims/images/lynx.png"",""stims/images/aardvark.png"",""stims/images/nyala.png"",""stims/images/dolphin.png"",""stims/images/tapir.png""]","dolphin","stims/images/dolphin.png","somewhat familiar","posttest","1","","","","","","","","","","","","","","","","",""
"coact-test","55","229489","0.0-55.0","p074","1","0","","","","","","407390.192","","","[""stims/images/jaguar.png"",""stims/images/zebra.png"",""stims/images/elephant.png"",""stims/images/lynx.png"",""stims/images/aardvark.png"",""stims/images/nyala.png"",""stims/images/dolphin.png"",""stims/images/tapir.png""]","dolphin","","somewhat familiar","posttest","1","stims/audio/wheres_dolphin.wav","6","stims/images/dolphin.png","1","","","","","","","","","","","","",""
"coact-test-prompt","56","230379","0.0-56.0","p074","1","0","","","","","","889","","","[""stims/images/tapir.png"",""stims/images/elephant.png"",""stims/images/aardvark.png"",""stims/images/jaguar.png"",""stims/images/dolphin.png"",""stims/images/lynx.png"",""stims/images/zebra.png"",""stims/images/nyala.png""]","elephant","stims/images/elephant.png","familiar","posttest","1","","","","","","","","","","","","","","","","",""
"coact-test","57","233359","0.0-57.0","p074","1","0","","","","","","411255.92","","","[""stims/images/tapir.png"",""stims/images/elephant.png"",""stims/images/aardvark.png"",""stims/images/jaguar.png"",""stims/images/dolphin.png"",""stims/images/lynx.png"",""stims/images/zebra.png"",""stims/images/nyala.png""]","elephant","","familiar","posttest","1","stims/audio/find_elephant.wav","1","stims/images/elephant.png","1","","","","","","","","","","","","",""
"coact-test-prompt","58","234718","0.0-58.0","p074","1","0","","","","","","1356.9999999999418","","","[""stims/images/lynx.png"",""stims/images/nyala.png"",""stims/images/dolphin.png"",""stims/images/jaguar.png"",""stims/images/aardvark.png"",""stims/images/tapir.png"",""stims/images/zebra.png"",""stims/images/elephant.png""]","aardvark","stims/images/aardvark.png","somewhat unfamiliar","posttest","1","","","","","","","","","","","","","","","","",""
"coact-test","59","238495","0.0-59.0","p074","1","0","","","","","","416387.58133333334","","","[""stims/images/lynx.png"",""stims/images/nyala.png"",""stims/images/dolphin.png"",""stims/images/jaguar.png"",""stims/images/aardvark.png"",""stims/images/tapir.png"",""stims/images/zebra.png"",""stims/images/elephant.png""]","aardvark","","somewhat unfamiliar","posttest","1","stims/audio/wheres_aardvark.wav","4","stims/images/aardvark.png","1","","","","","","","","","","","","",""
"coact-test-prompt","60","239603","0.0-60.0","p074","1","0","","","","","","1107","","","[""stims/images/nyala.png"",""stims/images/jaguar.png"",""stims/images/tapir.png"",""stims/images/elephant.png"",""stims/images/zebra.png"",""stims/images/lynx.png"",""stims/images/aardvark.png"",""stims/images/dolphin.png""]","nyala","stims/images/nyala.png","unfamiliar","posttest","1","","","","","","","","","","","","","","","","",""
"coact-test","61","243384","0.0-61.0","p074","1","0","","","","","","421271.69333333336","","","[""stims/images/nyala.png"",""stims/images/jaguar.png"",""stims/images/tapir.png"",""stims/images/elephant.png"",""stims/images/zebra.png"",""stims/images/lynx.png"",""stims/images/aardvark.png"",""stims/images/dolphin.png""]","nyala","","unfamiliar","posttest","1","stims/audio/find_nyala.wav","0","stims/images/nyala.png","1","","","","","","","","","","","","",""
"coact-test-prompt","62","244655","0.0-62.0","p074","1","0","","","","","","1270","","","[""stims/images/tapir.png"",""stims/images/elephant.png"",""stims/images/nyala.png"",""stims/images/dolphin.png"",""stims/images/lynx.png"",""stims/images/zebra.png"",""stims/images/aardvark.png"",""stims/images/jaguar.png""]","zebra","stims/images/zebra.png","familiar","posttest","1","","","","","","","","","","","","","","","","",""
"coact-test","63","247751","0.0-63.0","p074","1","0","","","","","","425634.64266666665","","","[""stims/images/tapir.png"",""stims/images/elephant.png"",""stims/images/nyala.png"",""stims/images/dolphin.png"",""stims/images/lynx.png"",""stims/images/zebra.png"",""stims/images/aardvark.png"",""stims/images/jaguar.png""]","zebra","","familiar","posttest","1","stims/audio/find_zebra.wav","5","stims/images/zebra.png","1","","","","","","","","","","","","",""
"coact-test-prompt","64","249402","0.0-64.0","p074","1","0","","","","","","1649","","","[""stims/images/nyala.png"",""stims/images/aardvark.png"",""stims/images/zebra.png"",""stims/images/lynx.png"",""stims/images/jaguar.png"",""stims/images/dolphin.png"",""stims/images/tapir.png"",""stims/images/elephant.png""]","jaguar","stims/images/jaguar.png","somewhat familiar","posttest","1","","","","","","","","","","","","","","","","",""
"coact-test","65","253380","0.0-65.0","p074","1","0","","","","","","431258.896","","","[""stims/images/nyala.png"",""stims/images/aardvark.png"",""stims/images/zebra.png"",""stims/images/lynx.png"",""stims/images/jaguar.png"",""stims/images/dolphin.png"",""stims/images/tapir.png"",""stims/images/elephant.png""]","jaguar","","somewhat familiar","posttest","1","stims/audio/wheres_jaguar.wav","4","stims/images/jaguar.png","1","","","","","","","","","","","","",""
