"trial_type","trial_index","time_elapsed","internal_node_id","subject_id","round_name","round_index","success","timeout","failed_images","failed_audio","failed_video","rt","stimulus","response","images","target","target_image","target_type","round_type","set","test_audio","choice","chosen_image","correct","choices","chosen_images","chosen_items","chosen_audio_items","first_choice_location","chosen_images_in_order","chosen_audio_in_order","chosen_items_in_order","condition","sample_num","chosen_index","chosen_audio","central_images"
"pavlovia","0","3","0.0-0.0","p086","2","1","","","","","","","","","","","","","","","","","","","","","","","","","","","","","","",""
"preload","1","330","0.0-1.0","p086","2","1","true","false","[]","[]","[]","","","","","","","","","","","","","","","","","","","","","","","","","",""
"html-button-response","2","4745","0.0-2.0","p086","2","1","","","","","","4414","","0","","","","","","","","","","","","","","","","","","","","","","",""
"coact-test-prompt","3","8839","0.0-3.0","p086","2","1","","","","","","4092","","","[""stims/images/cow.png"",""stims/images/butterfly.png"",""stims/images/cat.png"",""stims/images/wolf.png"",""stims/images/duck.png"",""stims/images/frog.png"",""stims/images/squirrel.png"",""stims/images/horse.png""]","wolf","stims/images/wolf.png","familiar","practice_pretest","familiar","","","","","","","","","","","","","","","","",""
"coact-test","4","14140","0.0-4.0","p086","2","1","","","","","","18980.442666666666","","","[""stims/images/cow.png"",""stims/images/butterfly.png"",""stims/images/cat.png"",""stims/images/wolf.png"",""stims/images/duck.png"",""stims/images/frog.png"",""stims/images/squirrel.png"",""stims/images/horse.png""]","wolf","","familiar","practice_pretest","familiar","stims/audio/find_wolf.wav","3","stims/images/wolf.png","1","","","","","","","","","","","","",""
"coact-test-prompt","5","15891","0.0-5.0","p086","2","1","","","","","","1750","","","[""stims/images/horse.png"",""stims/images/squirrel.png"",""stims/images/duck.png"",""stims/images/cat.png"",""stims/images/wolf.png"",""stims/images/butterfly.png"",""stims/images/cow.png"",""stims/images/frog.png""]","frog","stims/images/frog.png","familiar","practice_pretest","familiar","","","","","","","","","","","","","","","","",""
"coact-test","6","18732","0.0-6.0","p086","2","1","","","","","","23566.394666666667","","","[""stims/images/horse.png"",""stims/images/squirrel.png"",""stims/images/duck.png"",""stims/images/cat.png"",""stims/images/wolf.png"",""stims/images/butterfly.png"",""stims/images/cow.png"",""stims/images/frog.png""]","frog","","familiar","practice_pretest","familiar","stims/audio/find_frog.wav","7","stims/images/frog.png","1","","","","","","","","","","","","",""
"coact-test-prompt","7","19884","0.0-7.0","p086","2","1","","","","","","1151","","","[""stims/images/zebra.png"",""stims/images/armadillo.png"",""stims/images/porcupine.png"",""stims/images/dog.png"",""stims/images/flamingo.png"",""stims/images/tapir.png"",""stims/images/aardvark.png"",""stims/images/tarsier.png""]","armadillo","stims/images/armadillo.png","somewhat unfamiliar","pretest","2","","","","","","","","","","","","","","","","",""
"coact-test","8","23396","0.0-8.0","p086","2","1","","","","","","28225.402666666665","","","[""stims/images/zebra.png"",""stims/images/armadillo.png"",""stims/images/porcupine.png"",""stims/images/dog.png"",""stims/images/flamingo.png"",""stims/images/tapir.png"",""stims/images/aardvark.png"",""stims/images/tarsier.png""]","armadillo","","somewhat unfamiliar","pretest","2","stims/audio/wheres_armadillo.wav","2","stims/images/porcupine.png","0","","","","","","","","","","","","",""
"coact-test-prompt","9","27639","0.0-9.0","p086","2","1","","","","","","4243","","","[""stims/images/porcupine.png"",""stims/images/aardvark.png"",""stims/images/armadillo.png"",""stims/images/tarsier.png"",""stims/images/dog.png"",""stims/images/zebra.png"",""stims/images/flamingo.png"",""stims/images/tapir.png""]","aardvark","stims/images/aardvark.png","somewhat unfamiliar","pretest","2","","","","","","","","","","","","","","","","",""
"coact-test","10","32340","0.0-10.0","p086","2","1","","","","","","37161.648","","","[""stims/images/porcupine.png"",""stims/images/aardvark.png"",""stims/images/armadillo.png"",""stims/images/tarsier.png"",""stims/images/dog.png"",""stims/images/zebra.png"",""stims/images/flamingo.png"",""stims/images/tapir.png""]","aardvark","","somewhat unfamiliar","pretest","2","stims/audio/find_aardvark.wav","1","stims/images/aardvark.png","1","","","","","","","","","","","","",""
"coact-test-prompt","11","32466","0.0-11.0","p086","2","1","","","","","","126","","","[""stims/images/armadillo.png"",""stims/images/tapir.png"",""stims/images/aardvark.png"",""stims/images/tarsier.png"",""stims/images/porcupine.png"",""stims/images/flamingo.png"",""stims/images/zebra.png"",""stims/images/dog.png""]","dog","stims/images/dog.png","familiar","pretest","2","","","","","","","","","","","","","","","","",""
"coact-test","12","37329","0.0-12.0","p086","2","1","","","","","","42146.824","","","[""stims/images/armadillo.png"",""stims/images/tapir.png"",""stims/images/aardvark.png"",""stims/images/tarsier.png"",""stims/images/porcupine.png"",""stims/images/flamingo.png"",""stims/images/zebra.png"",""stims/images/dog.png""]","dog","","familiar","pretest","2","stims/audio/wheres_dog.wav","7","stims/images/dog.png","1","","","","","","","","","","","","",""
"coact-test-prompt","13","37378","0.0-13.0","p086","2","1","","","","","","47","","","[""stims/images/dog.png"",""stims/images/tarsier.png"",""stims/images/flamingo.png"",""stims/images/zebra.png"",""stims/images/aardvark.png"",""stims/images/tapir.png"",""stims/images/armadillo.png"",""stims/images/porcupine.png""]","tarsier","stims/images/tarsier.png","unfamiliar","pretest","2","","","","","","","","","","","","","","","","",""
"coact-test","14","40847","0.0-14.0","p086","2","1","","","","","","45659.912","","","[""stims/images/dog.png"",""stims/images/tarsier.png"",""stims/images/flamingo.png"",""stims/images/zebra.png"",""stims/images/aardvark.png"",""stims/images/tapir.png"",""stims/images/armadillo.png"",""stims/images/porcupine.png""]","tarsier","","unfamiliar","pretest","2","stims/audio/wheres_tarsier.wav","1","stims/images/tarsier.png","1","","","","","","","","","","","","",""
"coact-test-prompt","15","43112","0.0-15.0","p086","2","1","","","","","","2264","","","[""stims/images/armadillo.png"",""stims/images/dog.png"",""stims/images/porcupine.png"",""stims/images/aardvark.png"",""stims/images/tapir.png"",""stims/images/zebra.png"",""stims/images/tarsier.png"",""stims/images/flamingo.png""]","tapir","stims/images/tapir.png","unfamiliar","pretest","2","","","","","","","","","","","","","","","","",""
"coact-test","16","47899","0.0-16.0","p086","2","1","","","","","","52706.17333333333","","","[""stims/images/armadillo.png"",""stims/images/dog.png"",""stims/images/porcupine.png"",""stims/images/aardvark.png"",""stims/images/tapir.png"",""stims/images/zebra.png"",""stims/images/tarsier.png"",""stims/images/flamingo.png""]","tapir","","unfamiliar","pretest","2","stims/audio/find_tapir.wav","2","stims/images/porcupine.png","0","","","","","","","","","","","","",""
"coact-test-prompt","17","48035","0.0-17.0","p086","2","1","","","","","","135","","","[""stims/images/porcupine.png"",""stims/images/tapir.png"",""stims/images/armadillo.png"",""stims/images/dog.png"",""stims/images/flamingo.png"",""stims/images/tarsier.png"",""stims/images/zebra.png"",""stims/images/aardvark.png""]","porcupine","stims/images/porcupine.png","somewhat familiar","pretest","2","","","","","","","","","","","","","","","","",""
"coact-test","18","54159","0.0-18.0","p086","2","1","","","","","","58961.256","","","[""stims/images/porcupine.png"",""stims/images/tapir.png"",""stims/images/armadillo.png"",""stims/images/dog.png"",""stims/images/flamingo.png"",""stims/images/tarsier.png"",""stims/images/zebra.png"",""stims/images/aardvark.png""]","porcupine","","somewhat familiar","pretest","2","stims/audio/wheres_porcupine.wav","2","stims/images/armadillo.png","0","","","","","","","","","","","","",""
"coact-test-prompt","19","54523","0.0-19.0","p086","2","1","","","","","","362","","","[""stims/images/porcupine.png"",""stims/images/dog.png"",""stims/images/aardvark.png"",""stims/images/zebra.png"",""stims/images/armadillo.png"",""stims/images/tapir.png"",""stims/images/tarsier.png"",""stims/images/flamingo.png""]","zebra","stims/images/zebra.png","familiar","pretest","2","","","","","","","","","","","","","","","","",""
"coact-test","20","58499","0.0-20.0","p086","2","1","","","","","","63295.76266666667","","","[""stims/images/porcupine.png"",""stims/images/dog.png"",""stims/images/aardvark.png"",""stims/images/zebra.png"",""stims/images/armadillo.png"",""stims/images/tapir.png"",""stims/images/tarsier.png"",""stims/images/flamingo.png""]","zebra","","familiar","pretest","2","stims/audio/find_zebra.wav","4","stims/images/armadillo.png","0","","","","","","","","","","","","",""
"coact-test-prompt","21","60133","0.0-21.0","p086","2","1","","","","","","1632.0000000000073","","","[""stims/images/dog.png"",""stims/images/porcupine.png"",""stims/images/zebra.png"",""stims/images/flamingo.png"",""stims/images/aardvark.png"",""stims/images/tarsier.png"",""stims/images/tapir.png"",""stims/images/armadillo.png""]","flamingo","stims/images/flamingo.png","somewhat familiar","pretest","2","","","","","","","","","","","","","","","","",""
"coact-test","22","63369","0.0-22.0","p086","2","1","","","","","","68161.152","","","[""stims/images/dog.png"",""stims/images/porcupine.png"",""stims/images/zebra.png"",""stims/images/flamingo.png"",""stims/images/aardvark.png"",""stims/images/tarsier.png"",""stims/images/tapir.png"",""stims/images/armadillo.png""]","flamingo","","somewhat familiar","pretest","2","stims/audio/find_flamingo.wav","3","stims/images/flamingo.png","1","","","","","","","","","","","","",""
"html-button-response","23","77180","0.0-23.0","p086","2","1","","","","","","13810","","0","","","","","","","","","","","","","","","","","","","","","","",""
"coact-grid","24","86656","0.0-24.0","p086","2","1","","","","","","8166.000000000015","","","[""stims/images/wolf.png"",""stims/images/butterfly.png"",""stims/images/duck.png"",""stims/images/squirrel.png"",""stims/images/horse.png"",""stims/images/cow.png"",""stims/images/frog.png"",""stims/images/cat.png""]","","","","","familiar","","","","","[4,6]","[""stims/images/horse.png"",""stims/images/frog.png""]","[""horse"",""frog""]","[""stims/audio/its_horse.wav"",""stims/audio/its_frog.wav""]","right","[""stims/images/frog.png"",""stims/images/horse.png""]","[""stims/audio/its_frog.wav"",""stims/audio/its_horse.wav""]","[""frog"",""horse""]","active","0","","",""
"coact-grid-choice","25","91816","0.0-25.0","p086","2","1","","","","","","5156","","","[""stims/images/wolf.png"",""stims/images/butterfly.png"",""stims/images/duck.png"",""stims/images/squirrel.png"",""stims/images/horse.png"",""stims/images/cow.png"",""stims/images/frog.png"",""stims/images/cat.png""]","","","","","familiar","","","stims/images/frog.png","","","[""stims/images/horse.png"",""stims/images/frog.png""]","","","","[""stims/images/frog.png"",""stims/images/horse.png""]","[""stims/audio/its_frog.wav"",""stims/audio/its_horse.wav""]","[""frog"",""horse""]","active","0","0","stims/audio/its_frog.wav","[""stims/images/frog.png"",""stims/images/horse.png""]"
"coact-grid-choice-audio","26","94830","0.0-26.0","p086","2","1","","","","","","3003","","","[""stims/images/wolf.png"",""stims/images/butterfly.png"",""stims/images/duck.png"",""stims/images/squirrel.png"",""stims/images/horse.png"",""stims/images/cow.png"",""stims/images/frog.png"",""stims/images/cat.png""]","","","","","familiar","","","stims/images/frog.png","","","","","","","","","","active","0","","stims/audio/its_frog.wav","[""stims/images/frog.png"",""stims/images/horse.png""]"
"coact-grid","27","99238","0.0-27.0","p086","2","1","","","","","","3097","","","[""stims/images/dog.png"",""stims/images/aardvark.png"",""stims/images/armadillo.png"",""stims/images/zebra.png"",""stims/images/tapir.png"",""stims/images/tarsier.png"",""stims/images/flamingo.png"",""stims/images/porcupine.png""]","","","","","2","","","","","[2,1]","[""stims/images/armadillo.png"",""stims/images/aardvark.png""]","[""armadillo"",""aardvark""]","[""stims/audio/its_armadillo.wav"",""stims/audio/its_aardvark.wav""]","left","[""stims/images/armadillo.png"",""stims/images/aardvark.png""]","[""stims/audio/its_armadillo.wav"",""stims/audio/its_aardvark.wav""]","[""armadillo"",""aardvark""]","active","0","","",""
"coact-grid-choice","28","101271","0.0-28.0","p086","2","1","","","","","","2030.9999999999854","","","[""stims/images/dog.png"",""stims/images/aardvark.png"",""stims/images/armadillo.png"",""stims/images/zebra.png"",""stims/images/tapir.png"",""stims/images/tarsier.png"",""stims/images/flamingo.png"",""stims/images/porcupine.png""]","","","","","2","","","stims/images/armadillo.png","","","[""stims/images/armadillo.png"",""stims/images/aardvark.png""]","","","","[""stims/images/armadillo.png"",""stims/images/aardvark.png""]","[""stims/audio/its_armadillo.wav"",""stims/audio/its_aardvark.wav""]","[""armadillo"",""aardvark""]","active","0","0","stims/audio/its_armadillo.wav","[""stims/images/armadillo.png"",""stims/images/aardvark.png""]"
"coact-grid-choice-audio","29","104282","0.0-29.0","p086","2","1","","","","","","3000","","","[""stims/images/dog.png"",""stims/images/aardvark.png"",""stims/images/armadillo.png"",""stims/images/zebra.png"",""stims/images/tapir.png"",""stims/images/tarsier.png"",""stims/images/flamingo.png"",""stims/images/porcupine.png""]","","","","","2","","","stims/images/armadillo.png","","","","","","","","","","active","0","","stims/audio/its_armadillo.wav","[""stims/images/armadillo.png"",""stims/images/aardvark.png""]"
"coact-grid","30","108009","0.0-30.0","p086","2","1","","","","","","2420","","","[""stims/images/dog.png"",""stims/images/armadillo.png"",""stims/images/tarsier.png"",""stims/images/zebra.png"",""stims/images/aardvark.png"",""stims/images/porcupine.png"",""stims/images/flamingo.png"",""stims/images/tapir.png""]","","","","","2","","","","","[7,6]","[""stims/images/tapir.png"",""stims/images/flamingo.png""]","[""tapir"",""flamingo""]","[""stims/audio/thats_tapir.wav"",""stims/audio/thats_flamingo.wav""]","left","[""stims/images/tapir.png"",""stims/images/flamingo.png""]","[""stims/audio/thats_tapir.wav"",""stims/audio/thats_flamingo.wav""]","[""tapir"",""flamingo""]","active","1","","",""
"coact-grid-choice","31","109809","0.0-31.0","p086","2","1","","","","","","1798.9999999999854","","","[""stims/images/dog.png"",""stims/images/armadillo.png"",""stims/images/tarsier.png"",""stims/images/zebra.png"",""stims/images/aardvark.png"",""stims/images/porcupine.png"",""stims/images/flamingo.png"",""stims/images/tapir.png""]","","","","","2","","","stims/images/flamingo.png","","","[""stims/images/tapir.png"",""stims/images/flamingo.png""]","","","","[""stims/images/tapir.png"",""stims/images/flamingo.png""]","[""stims/audio/thats_tapir.wav"",""stims/audio/thats_flamingo.wav""]","[""tapir"",""flamingo""]","active","1","1","stims/audio/thats_flamingo.wav","[""stims/images/tapir.png"",""stims/images/flamingo.png""]"
"coact-grid-choice-audio","32","112820","0.0-32.0","p086","2","1","","","","","","3003","","","[""stims/images/dog.png"",""stims/images/armadillo.png"",""stims/images/tarsier.png"",""stims/images/zebra.png"",""stims/images/aardvark.png"",""stims/images/porcupine.png"",""stims/images/flamingo.png"",""stims/images/tapir.png""]","","","","","2","","","stims/images/flamingo.png","","","","","","","","","","active","1","","stims/audio/thats_flamingo.wav","[""stims/images/tapir.png"",""stims/images/flamingo.png""]"
"coact-grid","33","116705","0.0-33.0","p086","2","1","","","","","","2578","","","[""stims/images/tapir.png"",""stims/images/porcupine.png"",""stims/images/zebra.png"",""stims/images/tarsier.png"",""stims/images/aardvark.png"",""stims/images/armadillo.png"",""stims/images/flamingo.png"",""stims/images/dog.png""]","","","","","2","","","","","[3,1]","[""stims/images/tarsier.png"",""stims/images/porcupine.png""]","[""tarsier"",""porcupine""]","[""stims/audio/its_tarsier.wav"",""stims/audio/its_porcupine.wav""]","left","[""stims/images/tarsier.png"",""stims/images/porcupine.png""]","[""stims/audio/its_tarsier.wav"",""stims/audio/its_porcupine.wav""]","[""tarsier"",""porcupine""]","active","2","","",""
"coact-grid-choice","34","117813","0.0-34.0","p086","2","1","","","","","","1106","","","[""stims/images/tapir.png"",""stims/images/porcupine.png"",""stims/images/zebra.png"",""stims/images/tarsier.png"",""stims/images/aardvark.png"",""stims/images/armadillo.png"",""stims/images/flamingo.png"",""stims/images/dog.png""]","","","","","2","","","stims/images/porcupine.png","","","[""stims/images/tarsier.png"",""stims/images/porcupine.png""]","","","","[""stims/images/tarsier.png"",""stims/images/porcupine.png""]","[""stims/audio/its_tarsier.wav"",""stims/audio/its_porcupine.wav""]","[""tarsier"",""porcupine""]","active","2","1","stims/audio/its_porcupine.wav","[""stims/images/tarsier.png"",""stims/images/porcupine.png""]"
"coact-grid-choice-audio","35","120823","0.0-35.0","p086","2","1","","","","","","3000","","","[""stims/images/tapir.png"",""stims/images/porcupine.png"",""stims/images/zebra.png"",""stims/images/tarsier.png"",""stims/images/aardvark.png"",""stims/images/armadillo.png"",""stims/images/flamingo.png"",""stims/images/dog.png""]","","","","","2","","","stims/images/porcupine.png","","","","","","","","","","active","2","","stims/audio/its_porcupine.wav","[""stims/images/tarsier.png"",""stims/images/porcupine.png""]"
"coact-grid","36","125388","0.0-36.0","p086","2","1","","","","","","3257.0000000000146","","","[""stims/images/tarsier.png"",""stims/images/zebra.png"",""stims/images/aardvark.png"",""stims/images/tapir.png"",""stims/images/flamingo.png"",""stims/images/dog.png"",""stims/images/armadillo.png"",""stims/images/porcupine.png""]","","","","","2","","","","","[7,6]","[""stims/images/porcupine.png"",""stims/images/armadillo.png""]","[""porcupine"",""armadillo""]","[""stims/audio/thats_porcupine.wav"",""stims/audio/thats_armadillo.wav""]","right","[""stims/images/armadillo.png"",""stims/images/porcupine.png""]","[""stims/audio/thats_armadillo.wav"",""stims/audio/thats_porcupine.wav""]","[""armadillo"",""porcupine""]","active","3","","",""
"coact-grid-choice","37","126769","0.0-37.0","p086","2","1","","","","","","1379","","","[""stims/images/tarsier.png"",""stims/images/zebra.png"",""stims/images/aardvark.png"",""stims/images/tapir.png"",""stims/images/flamingo.png"",""stims/images/dog.png"",""stims/images/armadillo.png"",""stims/images/porcupine.png""]","","","","","2","","","stims/images/porcupine.png","","","[""stims/images/porcupine.png"",""stims/images/armadillo.png""]","","","","[""stims/images/armadillo.png"",""stims/images/porcupine.png""]","[""stims/audio/thats_armadillo.wav"",""stims/audio/thats_porcupine.wav""]","[""armadillo"",""porcupine""]","active","3","1","stims/audio/thats_porcupine.wav","[""stims/images/armadillo.png"",""stims/images/porcupine.png""]"
"coact-grid-choice-audio","38","129778","0.0-38.0","p086","2","1","","","","","","3000","","","[""stims/images/tarsier.png"",""stims/images/zebra.png"",""stims/images/aardvark.png"",""stims/images/tapir.png"",""stims/images/flamingo.png"",""stims/images/dog.png"",""stims/images/armadillo.png"",""stims/images/porcupine.png""]","","","","","2","","","stims/images/porcupine.png","","","","","","","","","","active","3","","stims/audio/thats_porcupine.wav","[""stims/images/armadillo.png"",""stims/images/porcupine.png""]"
"coact-grid","39","135122","0.0-39.0","p086","2","1","","","","","","4038","","","[""stims/images/flamingo.png"",""stims/images/aardvark.png"",""stims/images/tapir.png"",""stims/images/tarsier.png"",""stims/images/zebra.png"",""stims/images/porcupine.png"",""stims/images/dog.png"",""stims/images/armadillo.png""]","","","","","2","","","","","[2,7]","[""stims/images/tapir.png"",""stims/images/armadillo.png""]","[""tapir"",""armadillo""]","[""stims/audio/its_tapir.wav"",""stims/audio/its_armadillo.wav""]","right","[""stims/images/armadillo.png"",""stims/images/tapir.png""]","[""stims/audio/its_armadillo.wav"",""stims/audio/its_tapir.wav""]","[""armadillo"",""tapir""]","active","4","","",""
"coact-grid-choice","40","136324","0.0-40.0","p086","2","1","","","","","","1200","","","[""stims/images/flamingo.png"",""stims/images/aardvark.png"",""stims/images/tapir.png"",""stims/images/tarsier.png"",""stims/images/zebra.png"",""stims/images/porcupine.png"",""stims/images/dog.png"",""stims/images/armadillo.png""]","","","","","2","","","stims/images/tapir.png","","","[""stims/images/tapir.png"",""stims/images/armadillo.png""]","","","","[""stims/images/armadillo.png"",""stims/images/tapir.png""]","[""stims/audio/its_armadillo.wav"",""stims/audio/its_tapir.wav""]","[""armadillo"",""tapir""]","active","4","1","stims/audio/its_tapir.wav","[""stims/images/armadillo.png"",""stims/images/tapir.png""]"
"coact-grid-choice-audio","41","139332","0.0-41.0","p086","2","1","","","","","","3000","","","[""stims/images/flamingo.png"",""stims/images/aardvark.png"",""stims/images/tapir.png"",""stims/images/tarsier.png"",""stims/images/zebra.png"",""stims/images/porcupine.png"",""stims/images/dog.png"",""stims/images/armadillo.png""]","","","","","2","","","stims/images/tapir.png","","","","","","","","","","active","4","","stims/audio/its_tapir.wav","[""stims/images/armadillo.png"",""stims/images/tapir.png""]"
"coact-grid","42","144329","0.0-42.0","p086","2","1","","","","","","3689","","","[""stims/images/aardvark.png"",""stims/images/porcupine.png"",""stims/images/tarsier.png"",""stims/images/armadillo.png"",""stims/images/dog.png"",""stims/images/zebra.png"",""stims/images/tapir.png"",""stims/images/flamingo.png""]","","","","","2","","","","","[0,7]","[""stims/images/aardvark.png"",""stims/images/flamingo.png""]","[""aardvark"",""flamingo""]","[""stims/audio/thats_aardvark.wav"",""stims/audio/thats_flamingo.wav""]","right","[""stims/images/flamingo.png"",""stims/images/aardvark.png""]","[""stims/audio/thats_flamingo.wav"",""stims/audio/thats_aardvark.wav""]","[""flamingo"",""aardvark""]","active","5","","",""
"coact-grid-choice","43","145463","0.0-43.0","p086","2","1","","","","","","1133","","","[""stims/images/aardvark.png"",""stims/images/porcupine.png"",""stims/images/tarsier.png"",""stims/images/armadillo.png"",""stims/images/dog.png"",""stims/images/zebra.png"",""stims/images/tapir.png"",""stims/images/flamingo.png""]","","","","","2","","","stims/images/aardvark.png","","","[""stims/images/aardvark.png"",""stims/images/flamingo.png""]","","","","[""stims/images/flamingo.png"",""stims/images/aardvark.png""]","[""stims/audio/thats_flamingo.wav"",""stims/audio/thats_aardvark.wav""]","[""flamingo"",""aardvark""]","active","5","1","stims/audio/thats_aardvark.wav","[""stims/images/flamingo.png"",""stims/images/aardvark.png""]"
"coact-grid-choice-audio","44","148474","0.0-44.0","p086","2","1","","","","","","3000","","","[""stims/images/aardvark.png"",""stims/images/porcupine.png"",""stims/images/tarsier.png"",""stims/images/armadillo.png"",""stims/images/dog.png"",""stims/images/zebra.png"",""stims/images/tapir.png"",""stims/images/flamingo.png""]","","","","","2","","","stims/images/aardvark.png","","","","","","","","","","active","5","","stims/audio/thats_aardvark.wav","[""stims/images/flamingo.png"",""stims/images/aardvark.png""]"
"html-button-response","45","155195","0.0-45.0","p086","2","1","","","","","","6719","","0","","","","","","","","","","","","","","","","","","","","","","",""
"coact-test-prompt","46","157498","0.0-46.0","p086","2","1","","","","","","2302","","","[""stims/images/wolf.png"",""stims/images/butterfly.png"",""stims/images/cow.png"",""stims/images/squirrel.png"",""stims/images/horse.png"",""stims/images/duck.png"",""stims/images/frog.png"",""stims/images/cat.png""]","wolf","stims/images/wolf.png","familiar","practice_posttest","familiar","","","","","","","","","","","","","","","","",""
"coact-test","47","160749","0.0-47.0","p086","2","1","","","","","","165447.78933333332","","","[""stims/images/wolf.png"",""stims/images/butterfly.png"",""stims/images/cow.png"",""stims/images/squirrel.png"",""stims/images/horse.png"",""stims/images/duck.png"",""stims/images/frog.png"",""stims/images/cat.png""]","wolf","","familiar","practice_posttest","familiar","stims/audio/wheres_wolf.wav","0","stims/images/wolf.png","1","","","","","","","","","","","","",""
"coact-test-prompt","48","161075","0.0-48.0","p086","2","1","","","","","","325","","","[""stims/images/horse.png"",""stims/images/squirrel.png"",""stims/images/cat.png"",""stims/images/frog.png"",""stims/images/wolf.png"",""stims/images/butterfly.png"",""stims/images/duck.png"",""stims/images/cow.png""]","frog","stims/images/frog.png","familiar","practice_posttest","familiar","","","","","","","","","","","","","","","","",""
"coact-test","49","164771","0.0-49.0","p086","2","1","","","","","","169467.21066666668","","","[""stims/images/horse.png"",""stims/images/squirrel.png"",""stims/images/cat.png"",""stims/images/frog.png"",""stims/images/wolf.png"",""stims/images/butterfly.png"",""stims/images/duck.png"",""stims/images/cow.png""]","frog","","familiar","practice_posttest","familiar","stims/audio/find_frog.wav","3","stims/images/frog.png","1","","","","","","","","","","","","",""
"coact-test-prompt","50","164885","0.0-50.0","p086","2","1","","","","","","113","","","[""stims/images/porcupine.png"",""stims/images/flamingo.png"",""stims/images/dog.png"",""stims/images/tarsier.png"",""stims/images/aardvark.png"",""stims/images/zebra.png"",""stims/images/tapir.png"",""stims/images/armadillo.png""]","dog","stims/images/dog.png","familiar","posttest","2","","","","","","","","","","","","","","","","",""
"coact-test","51","170782","0.0-51.0","p086","2","1","","","","","","175474.40533333333","","","[""stims/images/porcupine.png"",""stims/images/flamingo.png"",""stims/images/dog.png"",""stims/images/tarsier.png"",""stims/images/aardvark.png"",""stims/images/zebra.png"",""stims/images/tapir.png"",""stims/images/armadillo.png""]","dog","","familiar","posttest","2","stims/audio/find_dog.wav","2","stims/images/dog.png","1","","","","","","","","","","","","",""
"coact-test-prompt","52","172065","0.0-52.0","p086","2","1","","","","","","1282","","","[""stims/images/dog.png"",""stims/images/porcupine.png"",""stims/images/flamingo.png"",""stims/images/tapir.png"",""stims/images/zebra.png"",""stims/images/aardvark.png"",""stims/images/tarsier.png"",""stims/images/armadillo.png""]","zebra","stims/images/zebra.png","familiar","posttest","2","","","","","","","","","","","","","","","","",""
"coact-test","53","175643","0.0-53.0","p086","2","1","","","","","","180328.22133333332","","","[""stims/images/dog.png"",""stims/images/porcupine.png"",""stims/images/flamingo.png"",""stims/images/tapir.png"",""stims/images/zebra.png"",""stims/images/aardvark.png"",""stims/images/tarsier.png"",""stims/images/armadillo.png""]","zebra","","familiar","posttest","2","stims/audio/wheres_zebra.wav","4","stims/images/zebra.png","1","","","","","","","","","","","","",""
"coact-test-prompt","54","176776","0.0-54.0","p086","2","1","","","","","","1132","","","[""stims/images/aardvark.png"",""stims/images/zebra.png"",""stims/images/tarsier.png"",""stims/images/dog.png"",""stims/images/flamingo.png"",""stims/images/porcupine.png"",""stims/images/armadillo.png"",""stims/images/tapir.png""]","tapir","stims/images/tapir.png","unfamiliar","posttest","2","","","","","","","","","","","","","","","","",""
"coact-test","55","181396","0.0-55.0","p086","2","1","","","","","","186077.50933333332","","","[""stims/images/aardvark.png"",""stims/images/zebra.png"",""stims/images/tarsier.png"",""stims/images/dog.png"",""stims/images/flamingo.png"",""stims/images/porcupine.png"",""stims/images/armadillo.png"",""stims/images/tapir.png""]","tapir","","unfamiliar","posttest","2","stims/audio/wheres_tapir.wav","0","stims/images/aardvark.png","0","","","","","","","","","","","","",""
"coact-test-prompt","56","182660","0.0-56.0","p086","2","1","","","","","","1263","","","[""stims/images/flamingo.png"",""stims/images/tarsier.png"",""stims/images/zebra.png"",""stims/images/porcupine.png"",""stims/images/armadillo.png"",""stims/images/dog.png"",""stims/images/tapir.png"",""stims/images/aardvark.png""]","tarsier","stims/images/tarsier.png","unfamiliar","posttest","2","","","","","","","","","","","","","","","","",""
"coact-test","57","187666","0.0-57.0","p086","2","1","","","","","","192341.62666666668","","","[""stims/images/flamingo.png"",""stims/images/tarsier.png"",""stims/images/zebra.png"",""stims/images/porcupine.png"",""stims/images/armadillo.png"",""stims/images/dog.png"",""stims/images/tapir.png"",""stims/images/aardvark.png""]","tarsier","","unfamiliar","posttest","2","stims/audio/find_tarsier.wav","6","stims/images/tapir.png","0","","","","","","","","","","","","",""
"coact-test-prompt","58","189075","0.0-58.0","p086","2","1","","","","","","1406.999999999971","","","[""stims/images/tapir.png"",""stims/images/zebra.png"",""stims/images/dog.png"",""stims/images/flamingo.png"",""stims/images/armadillo.png"",""stims/images/porcupine.png"",""stims/images/tarsier.png"",""stims/images/aardvark.png""]","aardvark","stims/images/aardvark.png","somewhat unfamiliar","posttest","2","","","","","","","","","","","","","","","","",""
"coact-test","59","193376","0.0-59.0","p086","2","1","","","","","","198044.21333333335","","","[""stims/images/tapir.png"",""stims/images/zebra.png"",""stims/images/dog.png"",""stims/images/flamingo.png"",""stims/images/armadillo.png"",""stims/images/porcupine.png"",""stims/images/tarsier.png"",""stims/images/aardvark.png""]","aardvark","","somewhat unfamiliar","posttest","2","stims/audio/find_aardvark.wav","7","stims/images/aardvark.png","1","","","","","","","","","","","","",""
"coact-test-prompt","60","193520","0.0-60.0","p086","2","1","","","","","","143","","","[""stims/images/tapir.png"",""stims/images/aardvark.png"",""stims/images/zebra.png"",""stims/images/flamingo.png"",""stims/images/tarsier.png"",""stims/images/porcupine.png"",""stims/images/dog.png"",""stims/images/armadillo.png""]","flamingo","stims/images/flamingo.png","somewhat familiar","posttest","2","","","","","","","","","","","","","","","","",""
"coact-test","61","196897","0.0-61.0","p086","2","1","","","","","","201560.77066666668","","","[""stims/images/tapir.png"",""stims/images/aardvark.png"",""stims/images/zebra.png"",""stims/images/flamingo.png"",""stims/images/tarsier.png"",""stims/images/porcupine.png"",""stims/images/dog.png"",""stims/images/armadillo.png""]","flamingo","","somewhat familiar","posttest","2","stims/audio/wheres_flamingo.wav","3","stims/images/flamingo.png","1","","","","","","","","","","","","",""
"coact-test-prompt","62","198152","0.0-62.0","p086","2","1","","","","","","1255","","","[""stims/images/tapir.png"",""stims/images/aardvark.png"",""stims/images/armadillo.png"",""stims/images/tarsier.png"",""stims/images/porcupine.png"",""stims/images/dog.png"",""stims/images/zebra.png"",""stims/images/flamingo.png""]","porcupine","stims/images/porcupine.png","somewhat familiar","posttest","2","","","","","","","","","","","","","","","","",""
"coact-test","63","202292","0.0-63.0","p086","2","1","","","","","","206952.136","","","[""stims/images/tapir.png"",""stims/images/aardvark.png"",""stims/images/armadillo.png"",""stims/images/tarsier.png"",""stims/images/porcupine.png"",""stims/images/dog.png"",""stims/images/zebra.png"",""stims/images/flamingo.png""]","porcupine","","somewhat familiar","posttest","2","stims/audio/wheres_porcupine.wav","4","stims/images/porcupine.png","1","","","","","","","","","","","","",""
"coact-test-prompt","64","203656","0.0-64.0","p086","2","1","","","","","","1363","","","[""stims/images/dog.png"",""stims/images/porcupine.png"",""stims/images/tapir.png"",""stims/images/tarsier.png"",""stims/images/aardvark.png"",""stims/images/flamingo.png"",""stims/images/armadillo.png"",""stims/images/zebra.png""]","armadillo","stims/images/armadillo.png","somewhat unfamiliar","posttest","2","","","","","","","","","","","","","","","","",""
"coact-test","65","212797","0.0-65.0","p086","2","1","","","","","","217451.632","","","[""stims/images/dog.png"",""stims/images/porcupine.png"",""stims/images/tapir.png"",""stims/images/tarsier.png"",""stims/images/aardvark.png"",""stims/images/flamingo.png"",""stims/images/armadillo.png"",""stims/images/zebra.png""]","armadillo","","somewhat unfamiliar","posttest","2","stims/audio/find_armadillo.wav","2","stims/images/tapir.png","0","","","","","","","","","","","","",""
