"trial_type","trial_index","time_elapsed","internal_node_id","subject_id","round_name","round_index","success","timeout","failed_images","failed_audio","failed_video","rt","stimulus","response","images","target","target_image","target_type","round_type","set","test_audio","choice","chosen_image","correct","choices","chosen_images","chosen_items","chosen_audio_items","first_choice_location","chosen_images_in_order","chosen_audio_in_order","chosen_items_in_order","condition","sample_num","chosen_index","chosen_audio","central_images"
"pavlovia","0","3","0.0-0.0","p028","4","3","","","","","","","","","","","","","","","","","","","","","","","","","","","","","","",""
"preload","1","126","0.0-1.0","p028","4","3","true","false","[]","[]","[]","","","","","","","","","","","","","","","","","","","","","","","","","",""
"html-button-response","2","2801","0.0-2.0","p028","4","3","","","","","","2674","","0","","","","","","","","","","","","","","","","","","","","","","",""
"coact-test-prompt","3","9206","0.0-3.0","p028","4","3","","","","","","6404","","","[""stims/images/wolf.png"",""stims/images/cow.png"",""stims/images/duck.png"",""stims/images/frog.png"",""stims/images/horse.png"",""stims/images/squirrel.png"",""stims/images/butterfly.png"",""stims/images/cat.png""]","squirrel","stims/images/squirrel.png","familiar","practice_pretest","familiar","","","","","","","","","","","","","","","","",""
"coact-test","4","14725","0.0-4.0","p028","4","3","","","","","","20590.872","","","[""stims/images/wolf.png"",""stims/images/cow.png"",""stims/images/duck.png"",""stims/images/frog.png"",""stims/images/horse.png"",""stims/images/squirrel.png"",""stims/images/butterfly.png"",""stims/images/cat.png""]","squirrel","","familiar","practice_pretest","familiar","stims/audio/find_squirrel.wav","5","stims/images/squirrel.png","1","","","","","","","","","","","","",""
"coact-test-prompt","5","16326","0.0-5.0","p028","4","3","","","","","","1600","","","[""stims/images/butterfly.png"",""stims/images/frog.png"",""stims/images/horse.png"",""stims/images/wolf.png"",""stims/images/duck.png"",""stims/images/cow.png"",""stims/images/squirrel.png"",""stims/images/cat.png""]","cat","stims/images/cat.png","familiar","practice_pretest","familiar","","","","","","","","","","","","","","","","",""
"coact-test","6","23587","0.0-6.0","p028","4","3","","","","","","29445.754666666668","","","[""stims/images/butterfly.png"",""stims/images/frog.png"",""stims/images/horse.png"",""stims/images/wolf.png"",""stims/images/duck.png"",""stims/images/cow.png"",""stims/images/squirrel.png"",""stims/images/cat.png""]","cat","","familiar","practice_pretest","familiar","stims/audio/find_cat.wav","7","stims/images/cat.png","1","","","","","","","","","","","","",""
"coact-test-prompt","7","28480","0.0-7.0","p028","4","3","","","","","","4893.000000000007","","","[""stims/images/cormorant.png"",""stims/images/turtle.png"",""stims/images/hippopotamus.png"",""stims/images/bear.png"",""stims/images/nyala.png"",""stims/images/chameleon.png"",""stims/images/manatee.png"",""stims/images/flamingo.png""]","nyala","stims/images/nyala.png","unfamiliar","pretest","4","","","","","","","","","","","","","","","","",""
"coact-test","8","36063","0.0-8.0","p028","4","3","","","","","","41910.6","","","[""stims/images/cormorant.png"",""stims/images/turtle.png"",""stims/images/hippopotamus.png"",""stims/images/bear.png"",""stims/images/nyala.png"",""stims/images/chameleon.png"",""stims/images/manatee.png"",""stims/images/flamingo.png""]","nyala","","unfamiliar","pretest","4","stims/audio/wheres_nyala.wav","2","stims/images/hippopotamus.png","0","","","","","","","","","","","","",""
"coact-test-prompt","9","40045","0.0-9.0","p028","4","3","","","","","","3981","","","[""stims/images/chameleon.png"",""stims/images/manatee.png"",""stims/images/nyala.png"",""stims/images/flamingo.png"",""stims/images/turtle.png"",""stims/images/hippopotamus.png"",""stims/images/bear.png"",""stims/images/cormorant.png""]","chameleon","stims/images/chameleon.png","somewhat unfamiliar","pretest","4","","","","","","","","","","","","","","","","",""
"coact-test","10","45033","0.0-10.0","p028","4","3","","","","","","50871.037333333334","","","[""stims/images/chameleon.png"",""stims/images/manatee.png"",""stims/images/nyala.png"",""stims/images/flamingo.png"",""stims/images/turtle.png"",""stims/images/hippopotamus.png"",""stims/images/bear.png"",""stims/images/cormorant.png""]","chameleon","","somewhat unfamiliar","pretest","4","stims/audio/find_chameleon.wav","0","stims/images/chameleon.png","1","","","","","","","","","","","","",""
"coact-test-prompt","11","48135","0.0-11.0","p028","4","3","","","","","","3100.9999999999927","","","[""stims/images/chameleon.png"",""stims/images/bear.png"",""stims/images/nyala.png"",""stims/images/turtle.png"",""stims/images/manatee.png"",""stims/images/cormorant.png"",""stims/images/hippopotamus.png"",""stims/images/flamingo.png""]","turtle","stims/images/turtle.png","familiar","pretest","4","","","","","","","","","","","","","","","","",""
"coact-test","12","54882","0.0-12.0","p028","4","3","","","","","","60711.94666666666","","","[""stims/images/chameleon.png"",""stims/images/bear.png"",""stims/images/nyala.png"",""stims/images/turtle.png"",""stims/images/manatee.png"",""stims/images/cormorant.png"",""stims/images/hippopotamus.png"",""stims/images/flamingo.png""]","turtle","","familiar","pretest","4","stims/audio/wheres_turtle.wav","3","stims/images/turtle.png","1","","","","","","","","","","","","",""
"coact-test-prompt","13","59743","0.0-13.0","p028","4","3","","","","","","4860","","","[""stims/images/chameleon.png"",""stims/images/cormorant.png"",""stims/images/hippopotamus.png"",""stims/images/flamingo.png"",""stims/images/bear.png"",""stims/images/turtle.png"",""stims/images/nyala.png"",""stims/images/manatee.png""]","flamingo","stims/images/flamingo.png","somewhat familiar","pretest","4","","","","","","","","","","","","","","","","",""
"coact-test","14","63844","0.0-14.0","p028","4","3","","","","","","69662.33866666668","","","[""stims/images/chameleon.png"",""stims/images/cormorant.png"",""stims/images/hippopotamus.png"",""stims/images/flamingo.png"",""stims/images/bear.png"",""stims/images/turtle.png"",""stims/images/nyala.png"",""stims/images/manatee.png""]","flamingo","","somewhat familiar","pretest","4","stims/audio/find_flamingo.wav","3","stims/images/flamingo.png","1","","","","","","","","","","","","",""
"coact-test-prompt","15","66028","0.0-15.0","p028","4","3","","","","","","2181.9999999999854","","","[""stims/images/turtle.png"",""stims/images/nyala.png"",""stims/images/flamingo.png"",""stims/images/cormorant.png"",""stims/images/bear.png"",""stims/images/manatee.png"",""stims/images/hippopotamus.png"",""stims/images/chameleon.png""]","bear","stims/images/bear.png","familiar","pretest","4","","","","","","","","","","","","","","","","",""
"coact-test","16","70372","0.0-16.0","p028","4","3","","","","","","76185.05333333333","","","[""stims/images/turtle.png"",""stims/images/nyala.png"",""stims/images/flamingo.png"",""stims/images/cormorant.png"",""stims/images/bear.png"",""stims/images/manatee.png"",""stims/images/hippopotamus.png"",""stims/images/chameleon.png""]","bear","","familiar","pretest","4","stims/audio/find_bear.wav","4","stims/images/bear.png","1","","","","","","","","","","","","",""
"coact-test-prompt","17","72164","0.0-17.0","p028","4","3","","","","","","1791","","","[""stims/images/manatee.png"",""stims/images/bear.png"",""stims/images/hippopotamus.png"",""stims/images/turtle.png"",""stims/images/nyala.png"",""stims/images/chameleon.png"",""stims/images/cormorant.png"",""stims/images/flamingo.png""]","manatee","stims/images/manatee.png","somewhat unfamiliar","pretest","4","","","","","","","","","","","","","","","","",""
"coact-test","18","77693","0.0-18.0","p028","4","3","","","","","","83499.91733333333","","","[""stims/images/manatee.png"",""stims/images/bear.png"",""stims/images/hippopotamus.png"",""stims/images/turtle.png"",""stims/images/nyala.png"",""stims/images/chameleon.png"",""stims/images/cormorant.png"",""stims/images/flamingo.png""]","manatee","","somewhat unfamiliar","pretest","4","stims/audio/wheres_manatee.wav","6","stims/images/cormorant.png","0","","","","","","","","","","","","",""
"coact-test-prompt","19","80070","0.0-19.0","p028","4","3","","","","","","2376","","","[""stims/images/turtle.png"",""stims/images/cormorant.png"",""stims/images/chameleon.png"",""stims/images/nyala.png"",""stims/images/bear.png"",""stims/images/flamingo.png"",""stims/images/hippopotamus.png"",""stims/images/manatee.png""]","cormorant","stims/images/cormorant.png","unfamiliar","pretest","4","","","","","","","","","","","","","","","","",""
"coact-test","20","87424","0.0-20.0","p028","4","3","","","","","","93223.01333333334","","","[""stims/images/turtle.png"",""stims/images/cormorant.png"",""stims/images/chameleon.png"",""stims/images/nyala.png"",""stims/images/bear.png"",""stims/images/flamingo.png"",""stims/images/hippopotamus.png"",""stims/images/manatee.png""]","cormorant","","unfamiliar","pretest","4","stims/audio/find_cormorant.wav","7","stims/images/manatee.png","0","","","","","","","","","","","","",""
"coact-test-prompt","21","89950","0.0-21.0","p028","4","3","","","","","","2525","","","[""stims/images/manatee.png"",""stims/images/nyala.png"",""stims/images/cormorant.png"",""stims/images/hippopotamus.png"",""stims/images/chameleon.png"",""stims/images/turtle.png"",""stims/images/bear.png"",""stims/images/flamingo.png""]","hippopotamus","stims/images/hippopotamus.png","somewhat familiar","pretest","4","","","","","","","","","","","","","","","","",""
"coact-test","22","96180","0.0-22.0","p028","4","3","","","","","","101970.13333333333","","","[""stims/images/manatee.png"",""stims/images/nyala.png"",""stims/images/cormorant.png"",""stims/images/hippopotamus.png"",""stims/images/chameleon.png"",""stims/images/turtle.png"",""stims/images/bear.png"",""stims/images/flamingo.png""]","hippopotamus","","somewhat familiar","pretest","4","stims/audio/wheres_hippopotamus.wav","3","stims/images/hippopotamus.png","1","","","","","","","","","","","","",""
"html-button-response","23","116782","0.0-23.0","p028","4","3","","","","","","20601","","0","","","","","","","","","","","","","","","","","","","","","","",""
"coact-grid","24","126278","0.0-24.0","p028","4","3","","","","","","8188","","","[""stims/images/wolf.png"",""stims/images/cow.png"",""stims/images/cat.png"",""stims/images/horse.png"",""stims/images/squirrel.png"",""stims/images/duck.png"",""stims/images/frog.png"",""stims/images/butterfly.png""]","","","","","familiar","","","","","[6,2]","[""stims/images/frog.png"",""stims/images/cat.png""]","[""frog"",""cat""]","[""stims/audio/its_frog.wav"",""stims/audio/its_cat.wav""]","left","[""stims/images/frog.png"",""stims/images/cat.png""]","[""stims/audio/its_frog.wav"",""stims/audio/its_cat.wav""]","[""frog"",""cat""]","active","0","","",""
"coact-grid-choice","25","146252","0.0-25.0","p028","4","3","","","","","","19971.99999999997","","","[""stims/images/wolf.png"",""stims/images/cow.png"",""stims/images/cat.png"",""stims/images/horse.png"",""stims/images/squirrel.png"",""stims/images/duck.png"",""stims/images/frog.png"",""stims/images/butterfly.png""]","","","","","familiar","","","stims/images/frog.png","","","[""stims/images/frog.png"",""stims/images/cat.png""]","","","","[""stims/images/frog.png"",""stims/images/cat.png""]","[""stims/audio/its_frog.wav"",""stims/audio/its_cat.wav""]","[""frog"",""cat""]","active","0","0","stims/audio/its_frog.wav","[""stims/images/frog.png"",""stims/images/cat.png""]"
"coact-grid-choice-audio","26","149266","0.0-26.0","p028","4","3","","","","","","3003","","","[""stims/images/wolf.png"",""stims/images/cow.png"",""stims/images/cat.png"",""stims/images/horse.png"",""stims/images/squirrel.png"",""stims/images/duck.png"",""stims/images/frog.png"",""stims/images/butterfly.png""]","","","","","familiar","","","stims/images/frog.png","","","","","","","","","","active","0","","stims/audio/its_frog.wav","[""stims/images/frog.png"",""stims/images/cat.png""]"
"coact-grid","27","153327","0.0-27.0","p028","4","3","","","","","","2752.999999999971","","","[""stims/images/chameleon.png"",""stims/images/manatee.png"",""stims/images/turtle.png"",""stims/images/hippopotamus.png"",""stims/images/bear.png"",""stims/images/cormorant.png"",""stims/images/nyala.png"",""stims/images/flamingo.png""]","","","","","4","","","","","[0,5]","[""stims/images/chameleon.png"",""stims/images/cormorant.png""]","[""chameleon"",""cormorant""]","[""stims/audio/its_chameleon.wav"",""stims/audio/its_cormorant.wav""]","right","[""stims/images/cormorant.png"",""stims/images/chameleon.png""]","[""stims/audio/its_cormorant.wav"",""stims/audio/its_chameleon.wav""]","[""cormorant"",""chameleon""]","active","0","","",""
"coact-grid-choice","28","172617","0.0-28.0","p028","4","3","","","","","","19290.99999999997","","","[""stims/images/chameleon.png"",""stims/images/manatee.png"",""stims/images/turtle.png"",""stims/images/hippopotamus.png"",""stims/images/bear.png"",""stims/images/cormorant.png"",""stims/images/nyala.png"",""stims/images/flamingo.png""]","","","","","4","","","stims/images/cormorant.png","","","[""stims/images/chameleon.png"",""stims/images/cormorant.png""]","","","","[""stims/images/cormorant.png"",""stims/images/chameleon.png""]","[""stims/audio/its_cormorant.wav"",""stims/audio/its_chameleon.wav""]","[""cormorant"",""chameleon""]","active","0","0","stims/audio/its_cormorant.wav","[""stims/images/cormorant.png"",""stims/images/chameleon.png""]"
"coact-grid-choice-audio","29","175627","0.0-29.0","p028","4","3","","","","","","3000","","","[""stims/images/chameleon.png"",""stims/images/manatee.png"",""stims/images/turtle.png"",""stims/images/hippopotamus.png"",""stims/images/bear.png"",""stims/images/cormorant.png"",""stims/images/nyala.png"",""stims/images/flamingo.png""]","","","","","4","","","stims/images/cormorant.png","","","","","","","","","","active","0","","stims/audio/its_cormorant.wav","[""stims/images/cormorant.png"",""stims/images/chameleon.png""]"
"coact-grid","30","179647","0.0-30.0","p028","4","3","","","","","","2714","","","[""stims/images/cormorant.png"",""stims/images/flamingo.png"",""stims/images/bear.png"",""stims/images/nyala.png"",""stims/images/manatee.png"",""stims/images/hippopotamus.png"",""stims/images/turtle.png"",""stims/images/chameleon.png""]","","","","","4","","","","","[3,4]","[""stims/images/nyala.png"",""stims/images/manatee.png""]","[""nyala"",""manatee""]","[""stims/audio/its_nyala.wav"",""stims/audio/its_manatee.wav""]","left","[""stims/images/nyala.png"",""stims/images/manatee.png""]","[""stims/audio/its_nyala.wav"",""stims/audio/its_manatee.wav""]","[""nyala"",""manatee""]","active","1","","",""
"coact-grid-choice","31","188426","0.0-31.0","p028","4","3","","","","","","8779.00000000003","","","[""stims/images/cormorant.png"",""stims/images/flamingo.png"",""stims/images/bear.png"",""stims/images/nyala.png"",""stims/images/manatee.png"",""stims/images/hippopotamus.png"",""stims/images/turtle.png"",""stims/images/chameleon.png""]","","","","","4","","","stims/images/nyala.png","","","[""stims/images/nyala.png"",""stims/images/manatee.png""]","","","","[""stims/images/nyala.png"",""stims/images/manatee.png""]","[""stims/audio/its_nyala.wav"",""stims/audio/its_manatee.wav""]","[""nyala"",""manatee""]","active","1","0","stims/audio/its_nyala.wav","[""stims/images/nyala.png"",""stims/images/manatee.png""]"
"coact-grid-choice-audio","32","191437","0.0-32.0","p028","4","3","","","","","","3003","","","[""stims/images/cormorant.png"",""stims/images/flamingo.png"",""stims/images/bear.png"",""stims/images/nyala.png"",""stims/images/manatee.png"",""stims/images/hippopotamus.png"",""stims/images/turtle.png"",""stims/images/chameleon.png""]","","","","","4","","","stims/images/nyala.png","","","","","","","","","","active","1","","stims/audio/its_nyala.wav","[""stims/images/nyala.png"",""stims/images/manatee.png""]"
"coact-grid","33","195479","0.0-33.0","p028","4","3","","","","","","2736","","","[""stims/images/manatee.png"",""stims/images/flamingo.png"",""stims/images/bear.png"",""stims/images/chameleon.png"",""stims/images/turtle.png"",""stims/images/cormorant.png"",""stims/images/nyala.png"",""stims/images/hippopotamus.png""]","","","","","4","","","","","[0,5]","[""stims/images/manatee.png"",""stims/images/cormorant.png""]","[""manatee"",""cormorant""]","[""stims/audio/thats_manatee.wav"",""stims/audio/thats_cormorant.wav""]","left","[""stims/images/manatee.png"",""stims/images/cormorant.png""]","[""stims/audio/thats_manatee.wav"",""stims/audio/thats_cormorant.wav""]","[""manatee"",""cormorant""]","active","2","","",""
"coact-grid-choice","34","200216","0.0-34.0","p028","4","3","","","","","","4737","","","[""stims/images/manatee.png"",""stims/images/flamingo.png"",""stims/images/bear.png"",""stims/images/chameleon.png"",""stims/images/turtle.png"",""stims/images/cormorant.png"",""stims/images/nyala.png"",""stims/images/hippopotamus.png""]","","","","","4","","","stims/images/cormorant.png","","","[""stims/images/manatee.png"",""stims/images/cormorant.png""]","","","","[""stims/images/manatee.png"",""stims/images/cormorant.png""]","[""stims/audio/thats_manatee.wav"",""stims/audio/thats_cormorant.wav""]","[""manatee"",""cormorant""]","active","2","1","stims/audio/thats_cormorant.wav","[""stims/images/manatee.png"",""stims/images/cormorant.png""]"
"coact-grid-choice-audio","35","203225","0.0-35.0","p028","4","3","","","","","","3003","","","[""stims/images/manatee.png"",""stims/images/flamingo.png"",""stims/images/bear.png"",""stims/images/chameleon.png"",""stims/images/turtle.png"",""stims/images/cormorant.png"",""stims/images/nyala.png"",""stims/images/hippopotamus.png""]","","","","","4","","","stims/images/cormorant.png","","","","","","","","","","active","2","","stims/audio/thats_cormorant.wav","[""stims/images/manatee.png"",""stims/images/cormorant.png""]"
"coact-grid","36","207040","0.0-36.0","p028","4","3","","","","","","2509","","","[""stims/images/turtle.png"",""stims/images/manatee.png"",""stims/images/nyala.png"",""stims/images/bear.png"",""stims/images/chameleon.png"",""stims/images/cormorant.png"",""stims/images/flamingo.png"",""stims/images/hippopotamus.png""]","","","","","4","","","","","[1,0]","[""stims/images/manatee.png"",""stims/images/turtle.png""]","[""manatee"",""turtle""]","[""stims/audio/thats_manatee.wav"",""stims/audio/thats_turtle.wav""]","right","[""stims/images/turtle.png"",""stims/images/manatee.png""]","[""stims/audio/thats_turtle.wav"",""stims/audio/thats_manatee.wav""]","[""turtle"",""manatee""]","active","3","","",""
"coact-grid-choice","37","216308","0.0-37.0","p028","4","3","","","","","","9268","","","[""stims/images/turtle.png"",""stims/images/manatee.png"",""stims/images/nyala.png"",""stims/images/bear.png"",""stims/images/chameleon.png"",""stims/images/cormorant.png"",""stims/images/flamingo.png"",""stims/images/hippopotamus.png""]","","","","","4","","","stims/images/manatee.png","","","[""stims/images/manatee.png"",""stims/images/turtle.png""]","","","","[""stims/images/turtle.png"",""stims/images/manatee.png""]","[""stims/audio/thats_turtle.wav"",""stims/audio/thats_manatee.wav""]","[""turtle"",""manatee""]","active","3","1","stims/audio/thats_manatee.wav","[""stims/images/turtle.png"",""stims/images/manatee.png""]"
"coact-grid-choice-audio","38","219317","0.0-38.0","p028","4","3","","","","","","3003","","","[""stims/images/turtle.png"",""stims/images/manatee.png"",""stims/images/nyala.png"",""stims/images/bear.png"",""stims/images/chameleon.png"",""stims/images/cormorant.png"",""stims/images/flamingo.png"",""stims/images/hippopotamus.png""]","","","","","4","","","stims/images/manatee.png","","","","","","","","","","active","3","","stims/audio/thats_manatee.wav","[""stims/images/turtle.png"",""stims/images/manatee.png""]"
"coact-grid","39","226266","0.0-39.0","p028","4","3","","","","","","5643","","","[""stims/images/bear.png"",""stims/images/chameleon.png"",""stims/images/nyala.png"",""stims/images/flamingo.png"",""stims/images/hippopotamus.png"",""stims/images/turtle.png"",""stims/images/manatee.png"",""stims/images/cormorant.png""]","","","","","4","","","","","[1,0]","[""stims/images/chameleon.png"",""stims/images/bear.png""]","[""chameleon"",""bear""]","[""stims/audio/thats_chameleon.wav"",""stims/audio/thats_bear.wav""]","right","[""stims/images/bear.png"",""stims/images/chameleon.png""]","[""stims/audio/thats_bear.wav"",""stims/audio/thats_chameleon.wav""]","[""bear"",""chameleon""]","active","4","","",""
"coact-grid-choice","40","233085","0.0-40.0","p028","4","3","","","","","","6818.000000000029","","","[""stims/images/bear.png"",""stims/images/chameleon.png"",""stims/images/nyala.png"",""stims/images/flamingo.png"",""stims/images/hippopotamus.png"",""stims/images/turtle.png"",""stims/images/manatee.png"",""stims/images/cormorant.png""]","","","","","4","","","stims/images/chameleon.png","","","[""stims/images/chameleon.png"",""stims/images/bear.png""]","","","","[""stims/images/bear.png"",""stims/images/chameleon.png""]","[""stims/audio/thats_bear.wav"",""stims/audio/thats_chameleon.wav""]","[""bear"",""chameleon""]","active","4","1","stims/audio/thats_chameleon.wav","[""stims/images/bear.png"",""stims/images/chameleon.png""]"
"coact-grid-choice-audio","41","236093","0.0-41.0","p028","4","3","","","","","","3000","","","[""stims/images/bear.png"",""stims/images/chameleon.png"",""stims/images/nyala.png"",""stims/images/flamingo.png"",""stims/images/hippopotamus.png"",""stims/images/turtle.png"",""stims/images/manatee.png"",""stims/images/cormorant.png""]","","","","","4","","","stims/images/chameleon.png","","","","","","","","","","active","4","","stims/audio/thats_chameleon.wav","[""stims/images/bear.png"",""stims/images/chameleon.png""]"
"coact-grid","42","239855","0.0-42.0","p028","4","3","","","","","","2457","","","[""stims/images/nyala.png"",""stims/images/hippopotamus.png"",""stims/images/bear.png"",""stims/images/turtle.png"",""stims/images/flamingo.png"",""stims/images/manatee.png"",""stims/images/cormorant.png"",""stims/images/chameleon.png""]","","","","","4","","","","","[6,4]","[""stims/images/cormorant.png"",""stims/images/flamingo.png""]","[""cormorant"",""flamingo""]","[""stims/audio/its_cormorant.wav"",""stims/audio/its_flamingo.wav""]","left","[""stims/images/cormorant.png"",""stims/images/flamingo.png""]","[""stims/audio/its_cormorant.wav"",""stims/audio/its_flamingo.wav""]","[""cormorant"",""flamingo""]","active","5","","",""
"coact-grid-choice","43","242024","0.0-43.0","p028","4","3","","","","","","2168.000000000029","","","[""stims/images/nyala.png"",""stims/images/hippopotamus.png"",""stims/images/bear.png"",""stims/images/turtle.png"",""stims/images/flamingo.png"",""stims/images/manatee.png"",""stims/images/cormorant.png"",""stims/images/chameleon.png""]","","","","","4","","","stims/images/flamingo.png","","","[""stims/images/cormorant.png"",""stims/images/flamingo.png""]","","","","[""stims/images/cormorant.png"",""stims/images/flamingo.png""]","[""stims/audio/its_cormorant.wav"",""stims/audio/its_flamingo.wav""]","[""cormorant"",""flamingo""]","active","5","1","stims/audio/its_flamingo.wav","[""stims/images/cormorant.png"",""stims/images/flamingo.png""]"
"coact-grid-choice-audio","44","245032","0.0-44.0","p028","4","3","","","","","","3003","","","[""stims/images/nyala.png"",""stims/images/hippopotamus.png"",""stims/images/bear.png"",""stims/images/turtle.png"",""stims/images/flamingo.png"",""stims/images/manatee.png"",""stims/images/cormorant.png"",""stims/images/chameleon.png""]","","","","","4","","","stims/images/flamingo.png","","","","","","","","","","active","5","","stims/audio/its_flamingo.wav","[""stims/images/cormorant.png"",""stims/images/flamingo.png""]"
"html-button-response","45","260739","0.0-45.0","p028","4","3","","","","","","15706","","0","","","","","","","","","","","","","","","","","","","","","","",""
"coact-test-prompt","46","266219","0.0-46.0","p028","4","3","","","","","","5480","","","[""stims/images/horse.png"",""stims/images/squirrel.png"",""stims/images/wolf.png"",""stims/images/duck.png"",""stims/images/cow.png"",""stims/images/frog.png"",""stims/images/butterfly.png"",""stims/images/cat.png""]","squirrel","stims/images/squirrel.png","familiar","practice_posttest","familiar","","","","","","","","","","","","","","","","",""
"coact-test","47","270430","0.0-47.0","p028","4","3","","","","","","276054.8613333333","","","[""stims/images/horse.png"",""stims/images/squirrel.png"",""stims/images/wolf.png"",""stims/images/duck.png"",""stims/images/cow.png"",""stims/images/frog.png"",""stims/images/butterfly.png"",""stims/images/cat.png""]","squirrel","","familiar","practice_posttest","familiar","stims/audio/wheres_squirrel.wav","1","stims/images/squirrel.png","1","","","","","","","","","","","","",""
"coact-test-prompt","48","272556","0.0-48.0","p028","4","3","","","","","","2125","","","[""stims/images/horse.png"",""stims/images/wolf.png"",""stims/images/cat.png"",""stims/images/duck.png"",""stims/images/butterfly.png"",""stims/images/squirrel.png"",""stims/images/cow.png"",""stims/images/frog.png""]","cat","stims/images/cat.png","familiar","practice_posttest","familiar","","","","","","","","","","","","","","","","",""
"coact-test","49","277756","0.0-49.0","p028","4","3","","","","","","283375.52533333335","","","[""stims/images/horse.png"",""stims/images/wolf.png"",""stims/images/cat.png"",""stims/images/duck.png"",""stims/images/butterfly.png"",""stims/images/squirrel.png"",""stims/images/cow.png"",""stims/images/frog.png""]","cat","","familiar","practice_posttest","familiar","stims/audio/wheres_cat.wav","2","stims/images/cat.png","1","","","","","","","","","","","","",""
"coact-test-prompt","50","279668","0.0-50.0","p028","4","3","","","","","","1910.9999999999418","","","[""stims/images/bear.png"",""stims/images/turtle.png"",""stims/images/hippopotamus.png"",""stims/images/nyala.png"",""stims/images/manatee.png"",""stims/images/flamingo.png"",""stims/images/cormorant.png"",""stims/images/chameleon.png""]","cormorant","stims/images/cormorant.png","unfamiliar","posttest","4","","","","","","","","","","","","","","","","",""
"coact-test","51","288827","0.0-51.0","p028","4","3","","","","","","294438.41333333333","","","[""stims/images/bear.png"",""stims/images/turtle.png"",""stims/images/hippopotamus.png"",""stims/images/nyala.png"",""stims/images/manatee.png"",""stims/images/flamingo.png"",""stims/images/cormorant.png"",""stims/images/chameleon.png""]","cormorant","","unfamiliar","posttest","4","stims/audio/wheres_cormorant.wav","4","stims/images/manatee.png","0","","","","","","","","","","","","",""
"coact-test-prompt","52","293660","0.0-52.0","p028","4","3","","","","","","4832","","","[""stims/images/flamingo.png"",""stims/images/cormorant.png"",""stims/images/chameleon.png"",""stims/images/nyala.png"",""stims/images/turtle.png"",""stims/images/manatee.png"",""stims/images/hippopotamus.png"",""stims/images/bear.png""]","chameleon","stims/images/chameleon.png","somewhat unfamiliar","posttest","4","","","","","","","","","","","","","","","","",""
"coact-test","53","300322","0.0-53.0","p028","4","3","","","","","","305920.42133333336","","","[""stims/images/flamingo.png"",""stims/images/cormorant.png"",""stims/images/chameleon.png"",""stims/images/nyala.png"",""stims/images/turtle.png"",""stims/images/manatee.png"",""stims/images/hippopotamus.png"",""stims/images/bear.png""]","chameleon","","somewhat unfamiliar","posttest","4","stims/audio/wheres_chameleon.wav","2","stims/images/chameleon.png","1","","","","","","","","","","","","",""
"coact-test-prompt","54","302546","0.0-54.0","p028","4","3","","","","","","2223","","","[""stims/images/nyala.png"",""stims/images/manatee.png"",""stims/images/chameleon.png"",""stims/images/bear.png"",""stims/images/hippopotamus.png"",""stims/images/turtle.png"",""stims/images/flamingo.png"",""stims/images/cormorant.png""]","flamingo","stims/images/flamingo.png","somewhat familiar","posttest","4","","","","","","","","","","","","","","","","",""
"coact-test","55","308894","0.0-55.0","p028","4","3","","","","","","314484.5333333334","","","[""stims/images/nyala.png"",""stims/images/manatee.png"",""stims/images/chameleon.png"",""stims/images/bear.png"",""stims/images/hippopotamus.png"",""stims/images/turtle.png"",""stims/images/flamingo.png"",""stims/images/cormorant.png""]","flamingo","","somewhat familiar","posttest","4","stims/audio/find_flamingo.wav","6","stims/images/flamingo.png","1","","","","","","","","","","","","",""
"coact-test-prompt","56","312218","0.0-56.0","p028","4","3","","","","","","3322","","","[""stims/images/nyala.png"",""stims/images/chameleon.png"",""stims/images/manatee.png"",""stims/images/cormorant.png"",""stims/images/hippopotamus.png"",""stims/images/flamingo.png"",""stims/images/turtle.png"",""stims/images/bear.png""]","bear","stims/images/bear.png","familiar","posttest","4","","","","","","","","","","","","","","","","",""
"coact-test","57","316037","0.0-57.0","p028","4","3","","","","","","321617.8613333333","","","[""stims/images/nyala.png"",""stims/images/chameleon.png"",""stims/images/manatee.png"",""stims/images/cormorant.png"",""stims/images/hippopotamus.png"",""stims/images/flamingo.png"",""stims/images/turtle.png"",""stims/images/bear.png""]","bear","","familiar","posttest","4","stims/audio/find_bear.wav","7","stims/images/bear.png","1","","","","","","","","","","","","",""
"coact-test-prompt","58","317515","0.0-58.0","p028","4","3","","","","","","1477","","","[""stims/images/nyala.png"",""stims/images/turtle.png"",""stims/images/cormorant.png"",""stims/images/chameleon.png"",""stims/images/bear.png"",""stims/images/manatee.png"",""stims/images/hippopotamus.png"",""stims/images/flamingo.png""]","nyala","stims/images/nyala.png","unfamiliar","posttest","4","","","","","","","","","","","","","","","","",""
"coact-test","59","322844","0.0-59.0","p028","4","3","","","","","","328419.56533333333","","","[""stims/images/nyala.png"",""stims/images/turtle.png"",""stims/images/cormorant.png"",""stims/images/chameleon.png"",""stims/images/bear.png"",""stims/images/manatee.png"",""stims/images/hippopotamus.png"",""stims/images/flamingo.png""]","nyala","","unfamiliar","posttest","4","stims/audio/find_nyala.wav","2","stims/images/cormorant.png","0","","","","","","","","","","","","",""
"coact-test-prompt","60","328358","0.0-60.0","p028","4","3","","","","","","5513","","","[""stims/images/bear.png"",""stims/images/flamingo.png"",""stims/images/chameleon.png"",""stims/images/turtle.png"",""stims/images/cormorant.png"",""stims/images/hippopotamus.png"",""stims/images/nyala.png"",""stims/images/manatee.png""]","manatee","stims/images/manatee.png","somewhat unfamiliar","posttest","4","","","","","","","","","","","","","","","","",""
"coact-test","61","336765","0.0-61.0","p028","4","3","","","","","","342331.72266666667","","","[""stims/images/bear.png"",""stims/images/flamingo.png"",""stims/images/chameleon.png"",""stims/images/turtle.png"",""stims/images/cormorant.png"",""stims/images/hippopotamus.png"",""stims/images/nyala.png"",""stims/images/manatee.png""]","manatee","","somewhat unfamiliar","posttest","4","stims/audio/wheres_manatee.wav","6","stims/images/nyala.png","0","","","","","","","","","","","","",""
"coact-test-prompt","62","339984","0.0-62.0","p028","4","3","","","","","","3217","","","[""stims/images/turtle.png"",""stims/images/cormorant.png"",""stims/images/nyala.png"",""stims/images/bear.png"",""stims/images/flamingo.png"",""stims/images/hippopotamus.png"",""stims/images/manatee.png"",""stims/images/chameleon.png""]","hippopotamus","stims/images/hippopotamus.png","somewhat familiar","posttest","4","","","","","","","","","","","","","","","","",""
"coact-test","63","344906","0.0-63.0","p028","4","3","","","","","","350461.096","","","[""stims/images/turtle.png"",""stims/images/cormorant.png"",""stims/images/nyala.png"",""stims/images/bear.png"",""stims/images/flamingo.png"",""stims/images/hippopotamus.png"",""stims/images/manatee.png"",""stims/images/chameleon.png""]","hippopotamus","","somewhat familiar","posttest","4","stims/audio/find_hippopotamus.wav","5","stims/images/hippopotamus.png","1","","","","","","","","","","","","",""
"coact-test-prompt","64","346557","0.0-64.0","p028","4","3","","","","","","1650.0000000000582","","","[""stims/images/cormorant.png"",""stims/images/chameleon.png"",""stims/images/bear.png"",""stims/images/manatee.png"",""stims/images/hippopotamus.png"",""stims/images/flamingo.png"",""stims/images/turtle.png"",""stims/images/nyala.png""]","turtle","stims/images/turtle.png","familiar","posttest","4","","","","","","","","","","","","","","","","",""
"coact-test","65","350738","0.0-65.0","p028","4","3","","","","","","356287.52266666666","","","[""stims/images/cormorant.png"",""stims/images/chameleon.png"",""stims/images/bear.png"",""stims/images/manatee.png"",""stims/images/hippopotamus.png"",""stims/images/flamingo.png"",""stims/images/turtle.png"",""stims/images/nyala.png""]","turtle","","familiar","posttest","4","stims/audio/wheres_turtle.wav","6","stims/images/turtle.png","1","","","","","","","","","","","","",""
