"trial_type","trial_index","time_elapsed","internal_node_id","subject_id","round_name","round_index","success","timeout","failed_images","failed_audio","failed_video","rt","stimulus","response","images","target","target_image","target_type","round_type","set","test_audio","choice","chosen_image","correct","choices","chosen_images","chosen_items","chosen_audio_items","first_choice_location","chosen_images_in_order","chosen_audio_in_order","chosen_items_in_order","condition","sample_num","chosen_index","chosen_audio","central_images"
"pavlovia","0","4","0.0-0.0","p115","4","3","","","","","","","","","","","","","","","","","","","","","","","","","","","","","","",""
"preload","1","334","0.0-1.0","p115","4","3","true","false","[]","[]","[]","","","","","","","","","","","","","","","","","","","","","","","","","",""
"html-button-response","2","1263","0.0-2.0","p115","4","3","","","","","","929.0000000000018","","0","","","","","","","","","","","","","","","","","","","","","","",""
"coact-test-prompt","3","13623","0.0-3.0","p115","4","3","","","","","","12358","","","[""stims/images/horse.png"",""stims/images/cow.png"",""stims/images/wolf.png"",""stims/images/cat.png"",""stims/images/frog.png"",""stims/images/squirrel.png"",""stims/images/butterfly.png"",""stims/images/duck.png""]","cat","stims/images/cat.png","familiar","practice_pretest","familiar","","","","","","","","","","","","","","","","",""
"coact-test","4","20986","0.0-4.0","p115","4","3","","","","","","29283.661333333333","","","[""stims/images/horse.png"",""stims/images/cow.png"",""stims/images/wolf.png"",""stims/images/cat.png"",""stims/images/frog.png"",""stims/images/squirrel.png"",""stims/images/butterfly.png"",""stims/images/duck.png""]","cat","","familiar","practice_pretest","familiar","stims/audio/find_cat.wav","3","stims/images/cat.png","1","","","","","","","","","","","","",""
"coact-test-prompt","5","28248","0.0-5.0","p115","4","3","","","","","","7261","","","[""stims/images/duck.png"",""stims/images/wolf.png"",""stims/images/horse.png"",""stims/images/butterfly.png"",""stims/images/squirrel.png"",""stims/images/frog.png"",""stims/images/cat.png"",""stims/images/cow.png""]","squirrel","stims/images/squirrel.png","familiar","practice_pretest","familiar","","","","","","","","","","","","","","","","",""
"coact-test","6","31749","0.0-6.0","p115","4","3","","","","","","40033.04","","","[""stims/images/duck.png"",""stims/images/wolf.png"",""stims/images/horse.png"",""stims/images/butterfly.png"",""stims/images/squirrel.png"",""stims/images/frog.png"",""stims/images/cat.png"",""stims/images/cow.png""]","squirrel","","familiar","practice_pretest","familiar","stims/audio/wheres_squirrel.wav","4","stims/images/squirrel.png","1","","","","","","","","","","","","",""
"coact-test-prompt","7","32182","0.0-7.0","p115","4","3","","","","","","433","","","[""stims/images/alpaca.png"",""stims/images/dog.png"",""stims/images/tarsier.png"",""stims/images/wombat.png"",""stims/images/zebra.png"",""stims/images/antelope.png"",""stims/images/porcupine.png"",""stims/images/koala.png""]","zebra","stims/images/zebra.png","familiar","pretest","4","","","","","","","","","","","","","","","","",""
"coact-test","8","34724","0.0-8.0","p115","4","3","","","","","","43005.109333333334","","","[""stims/images/alpaca.png"",""stims/images/dog.png"",""stims/images/tarsier.png"",""stims/images/wombat.png"",""stims/images/zebra.png"",""stims/images/antelope.png"",""stims/images/porcupine.png"",""stims/images/koala.png""]","zebra","","familiar","pretest","4","stims/audio/find_zebra.wav","4","stims/images/zebra.png","1","","","","","","","","","","","","",""
"coact-test-prompt","9","39478","0.0-9.0","p115","4","3","","","","","","4753","","","[""stims/images/alpaca.png"",""stims/images/koala.png"",""stims/images/wombat.png"",""stims/images/antelope.png"",""stims/images/dog.png"",""stims/images/tarsier.png"",""stims/images/zebra.png"",""stims/images/porcupine.png""]","koala","stims/images/koala.png","somewhat familiar","pretest","4","","","","","","","","","","","","","","","","",""
"coact-test","10","48036","0.0-10.0","p115","4","3","","","","","","56308.808","","","[""stims/images/alpaca.png"",""stims/images/koala.png"",""stims/images/wombat.png"",""stims/images/antelope.png"",""stims/images/dog.png"",""stims/images/tarsier.png"",""stims/images/zebra.png"",""stims/images/porcupine.png""]","koala","","somewhat familiar","pretest","4","stims/audio/wheres_koala.wav","1","stims/images/koala.png","1","","","","","","","","","","","","",""
"coact-test-prompt","11","51428","0.0-11.0","p115","4","3","","","","","","3390","","","[""stims/images/alpaca.png"",""stims/images/zebra.png"",""stims/images/porcupine.png"",""stims/images/dog.png"",""stims/images/antelope.png"",""stims/images/wombat.png"",""stims/images/tarsier.png"",""stims/images/koala.png""]","antelope","stims/images/antelope.png","somewhat unfamiliar","pretest","4","","","","","","","","","","","","","","","","",""
"coact-test","12","56632","0.0-12.0","p115","4","3","","","","","","64893.858666666674","","","[""stims/images/alpaca.png"",""stims/images/zebra.png"",""stims/images/porcupine.png"",""stims/images/dog.png"",""stims/images/antelope.png"",""stims/images/wombat.png"",""stims/images/tarsier.png"",""stims/images/koala.png""]","antelope","","somewhat unfamiliar","pretest","4","stims/audio/find_antelope.wav","2","stims/images/porcupine.png","0","","","","","","","","","","","","",""
"coact-test-prompt","13","58107","0.0-13.0","p115","4","3","","","","","","1472.9999999999854","","","[""stims/images/koala.png"",""stims/images/zebra.png"",""stims/images/antelope.png"",""stims/images/porcupine.png"",""stims/images/alpaca.png"",""stims/images/dog.png"",""stims/images/wombat.png"",""stims/images/tarsier.png""]","porcupine","stims/images/porcupine.png","somewhat familiar","pretest","4","","","","","","","","","","","","","","","","",""
"coact-test","14","61248","0.0-14.0","p115","4","3","","","","","","69505.18133333333","","","[""stims/images/koala.png"",""stims/images/zebra.png"",""stims/images/antelope.png"",""stims/images/porcupine.png"",""stims/images/alpaca.png"",""stims/images/dog.png"",""stims/images/wombat.png"",""stims/images/tarsier.png""]","porcupine","","somewhat familiar","pretest","4","stims/audio/wheres_porcupine.wav","3","stims/images/porcupine.png","1","","","","","","","","","","","","",""
"coact-test-prompt","15","62512","0.0-15.0","p115","4","3","","","","","","1263","","","[""stims/images/tarsier.png"",""stims/images/alpaca.png"",""stims/images/zebra.png"",""stims/images/antelope.png"",""stims/images/dog.png"",""stims/images/koala.png"",""stims/images/porcupine.png"",""stims/images/wombat.png""]","tarsier","stims/images/tarsier.png","unfamiliar","pretest","4","","","","","","","","","","","","","","","","",""
"coact-test","16","66362","0.0-16.0","p115","4","3","","","","","","74613.77333333333","","","[""stims/images/tarsier.png"",""stims/images/alpaca.png"",""stims/images/zebra.png"",""stims/images/antelope.png"",""stims/images/dog.png"",""stims/images/koala.png"",""stims/images/porcupine.png"",""stims/images/wombat.png""]","tarsier","","unfamiliar","pretest","4","stims/audio/find_tarsier.wav","7","stims/images/wombat.png","0","","","","","","","","","","","","",""
"coact-test-prompt","17","67854","0.0-17.0","p115","4","3","","","","","","1491","","","[""stims/images/tarsier.png"",""stims/images/porcupine.png"",""stims/images/dog.png"",""stims/images/antelope.png"",""stims/images/koala.png"",""stims/images/zebra.png"",""stims/images/wombat.png"",""stims/images/alpaca.png""]","dog","stims/images/dog.png","familiar","pretest","4","","","","","","","","","","","","","","","","",""
"coact-test","18","70848","0.0-18.0","p115","4","3","","","","","","79093.43466666667","","","[""stims/images/tarsier.png"",""stims/images/porcupine.png"",""stims/images/dog.png"",""stims/images/antelope.png"",""stims/images/koala.png"",""stims/images/zebra.png"",""stims/images/wombat.png"",""stims/images/alpaca.png""]","dog","","familiar","pretest","4","stims/audio/find_dog.wav","2","stims/images/dog.png","1","","","","","","","","","","","","",""
"coact-test-prompt","19","72072","0.0-19.0","p115","4","3","","","","","","1224","","","[""stims/images/wombat.png"",""stims/images/tarsier.png"",""stims/images/dog.png"",""stims/images/antelope.png"",""stims/images/alpaca.png"",""stims/images/zebra.png"",""stims/images/koala.png"",""stims/images/porcupine.png""]","wombat","stims/images/wombat.png","unfamiliar","pretest","4","","","","","","","","","","","","","","","","",""
"coact-test","20","75232","0.0-20.0","p115","4","3","","","","","","83474.21333333333","","","[""stims/images/wombat.png"",""stims/images/tarsier.png"",""stims/images/dog.png"",""stims/images/antelope.png"",""stims/images/alpaca.png"",""stims/images/zebra.png"",""stims/images/koala.png"",""stims/images/porcupine.png""]","wombat","","unfamiliar","pretest","4","stims/audio/wheres_wombat.wav","1","stims/images/tarsier.png","0","","","","","","","","","","","","",""
"coact-test-prompt","21","75351","0.0-21.0","p115","4","3","","","","","","116","","","[""stims/images/tarsier.png"",""stims/images/koala.png"",""stims/images/wombat.png"",""stims/images/alpaca.png"",""stims/images/antelope.png"",""stims/images/dog.png"",""stims/images/porcupine.png"",""stims/images/zebra.png""]","alpaca","stims/images/alpaca.png","somewhat unfamiliar","pretest","4","","","","","","","","","","","","","","","","",""
"coact-test","22","79503","0.0-22.0","p115","4","3","","","","","","87741.94133333334","","","[""stims/images/tarsier.png"",""stims/images/koala.png"",""stims/images/wombat.png"",""stims/images/alpaca.png"",""stims/images/antelope.png"",""stims/images/dog.png"",""stims/images/porcupine.png"",""stims/images/zebra.png""]","alpaca","","somewhat unfamiliar","pretest","4","stims/audio/wheres_alpaca.wav","3","stims/images/alpaca.png","1","","","","","","","","","","","","",""
"html-button-response","23","84562","0.0-23.0","p115","4","3","","","","","","5057","","0","","","","","","","","","","","","","","","","","","","","","","",""
"coact-grid","24","92099","0.0-24.0","p115","4","3","","","","","","6228","","","[""stims/images/cow.png"",""stims/images/squirrel.png"",""stims/images/frog.png"",""stims/images/butterfly.png"",""stims/images/wolf.png"",""stims/images/duck.png"",""stims/images/horse.png"",""stims/images/cat.png""]","","","","","familiar","","","","","[6,7]","[""stims/images/horse.png"",""stims/images/cat.png""]","[""horse"",""cat""]","[""stims/audio/its_horse.wav"",""stims/audio/its_cat.wav""]","left","[""stims/images/horse.png"",""stims/images/cat.png""]","[""stims/audio/its_horse.wav"",""stims/audio/its_cat.wav""]","[""horse"",""cat""]","active","0","","",""
"coact-grid-choice","25","96143","0.0-25.0","p115","4","3","","","","","","4043","","","[""stims/images/cow.png"",""stims/images/squirrel.png"",""stims/images/frog.png"",""stims/images/butterfly.png"",""stims/images/wolf.png"",""stims/images/duck.png"",""stims/images/horse.png"",""stims/images/cat.png""]","","","","","familiar","","","stims/images/horse.png","","","[""stims/images/horse.png"",""stims/images/cat.png""]","","","","[""stims/images/horse.png"",""stims/images/cat.png""]","[""stims/audio/its_horse.wav"",""stims/audio/its_cat.wav""]","[""horse"",""cat""]","passive","0","0","stims/audio/its_horse.wav","[""stims/images/horse.png"",""stims/images/cat.png""]"
"coact-grid-choice-audio","26","99148","0.0-26.0","p115","4","3","","","","","","3000","","","[""stims/images/cow.png"",""stims/images/squirrel.png"",""stims/images/frog.png"",""stims/images/butterfly.png"",""stims/images/wolf.png"",""stims/images/duck.png"",""stims/images/horse.png"",""stims/images/cat.png""]","","","","","familiar","","","stims/images/horse.png","","","","","","","","","","passive","0","","stims/audio/its_horse.wav","[""stims/images/horse.png"",""stims/images/cat.png""]"
"coact-grid","27","103192","0.0-27.0","p115","4","3","","","","","","2735","","","[""stims/images/zebra.png"",""stims/images/dog.png"",""stims/images/koala.png"",""stims/images/tarsier.png"",""stims/images/antelope.png"",""stims/images/wombat.png"",""stims/images/porcupine.png"",""stims/images/alpaca.png""]","","","","","4","","","","","[6,5]","[""stims/images/porcupine.png"",""stims/images/wombat.png""]","[""porcupine"",""wombat""]","[""stims/audio/its_porcupine.wav"",""stims/audio/its_wombat.wav""]","right","[""stims/images/wombat.png"",""stims/images/porcupine.png""]","[""stims/audio/its_wombat.wav"",""stims/audio/its_porcupine.wav""]","[""wombat"",""porcupine""]","active","0","","",""
"coact-grid-choice","28","105749","0.0-28.0","p115","4","3","","","","","","2556","","","[""stims/images/zebra.png"",""stims/images/dog.png"",""stims/images/koala.png"",""stims/images/tarsier.png"",""stims/images/antelope.png"",""stims/images/wombat.png"",""stims/images/porcupine.png"",""stims/images/alpaca.png""]","","","","","4","","","stims/images/porcupine.png","","","[""stims/images/porcupine.png"",""stims/images/wombat.png""]","","","","[""stims/images/wombat.png"",""stims/images/porcupine.png""]","[""stims/audio/its_wombat.wav"",""stims/audio/its_porcupine.wav""]","[""wombat"",""porcupine""]","passive","0","1","stims/audio/its_porcupine.wav","[""stims/images/wombat.png"",""stims/images/porcupine.png""]"
"coact-grid-choice-audio","29","108754","0.0-29.0","p115","4","3","","","","","","3000","","","[""stims/images/zebra.png"",""stims/images/dog.png"",""stims/images/koala.png"",""stims/images/tarsier.png"",""stims/images/antelope.png"",""stims/images/wombat.png"",""stims/images/porcupine.png"",""stims/images/alpaca.png""]","","","","","4","","","stims/images/porcupine.png","","","","","","","","","","passive","0","","stims/audio/its_porcupine.wav","[""stims/images/wombat.png"",""stims/images/porcupine.png""]"
"coact-grid","30","112300","0.0-30.0","p115","4","3","","","","","","2238.9999999999854","","","[""stims/images/koala.png"",""stims/images/zebra.png"",""stims/images/tarsier.png"",""stims/images/alpaca.png"",""stims/images/wombat.png"",""stims/images/dog.png"",""stims/images/porcupine.png"",""stims/images/antelope.png""]","","","","","4","","","","","[7,0]","[""stims/images/antelope.png"",""stims/images/koala.png""]","[""antelope"",""koala""]","[""stims/audio/thats_antelope.wav"",""stims/audio/thats_koala.wav""]","left","[""stims/images/antelope.png"",""stims/images/koala.png""]","[""stims/audio/thats_antelope.wav"",""stims/audio/thats_koala.wav""]","[""antelope"",""koala""]","active","1","","",""
"coact-grid-choice","31","116872","0.0-31.0","p115","4","3","","","","","","4570.999999999985","","","[""stims/images/koala.png"",""stims/images/zebra.png"",""stims/images/tarsier.png"",""stims/images/alpaca.png"",""stims/images/wombat.png"",""stims/images/dog.png"",""stims/images/porcupine.png"",""stims/images/antelope.png""]","","","","","4","","","stims/images/koala.png","","","[""stims/images/antelope.png"",""stims/images/koala.png""]","","","","[""stims/images/antelope.png"",""stims/images/koala.png""]","[""stims/audio/thats_antelope.wav"",""stims/audio/thats_koala.wav""]","[""antelope"",""koala""]","passive","1","1","stims/audio/thats_koala.wav","[""stims/images/antelope.png"",""stims/images/koala.png""]"
"coact-grid-choice-audio","32","119876","0.0-32.0","p115","4","3","","","","","","3000","","","[""stims/images/koala.png"",""stims/images/zebra.png"",""stims/images/tarsier.png"",""stims/images/alpaca.png"",""stims/images/wombat.png"",""stims/images/dog.png"",""stims/images/porcupine.png"",""stims/images/antelope.png""]","","","","","4","","","stims/images/koala.png","","","","","","","","","","passive","1","","stims/audio/thats_koala.wav","[""stims/images/antelope.png"",""stims/images/koala.png""]"
"coact-grid","33","123390","0.0-33.0","p115","4","3","","","","","","2208","","","[""stims/images/wombat.png"",""stims/images/porcupine.png"",""stims/images/zebra.png"",""stims/images/dog.png"",""stims/images/alpaca.png"",""stims/images/tarsier.png"",""stims/images/antelope.png"",""stims/images/koala.png""]","","","","","4","","","","","[4,5]","[""stims/images/alpaca.png"",""stims/images/tarsier.png""]","[""alpaca"",""tarsier""]","[""stims/audio/thats_alpaca.wav"",""stims/audio/thats_tarsier.wav""]","right","[""stims/images/tarsier.png"",""stims/images/alpaca.png""]","[""stims/audio/thats_tarsier.wav"",""stims/audio/thats_alpaca.wav""]","[""tarsier"",""alpaca""]","active","2","","",""
"coact-grid-choice","34","125810","0.0-34.0","p115","4","3","","","","","","2420","","","[""stims/images/wombat.png"",""stims/images/porcupine.png"",""stims/images/zebra.png"",""stims/images/dog.png"",""stims/images/alpaca.png"",""stims/images/tarsier.png"",""stims/images/antelope.png"",""stims/images/koala.png""]","","","","","4","","","stims/images/alpaca.png","","","[""stims/images/alpaca.png"",""stims/images/tarsier.png""]","","","","[""stims/images/tarsier.png"",""stims/images/alpaca.png""]","[""stims/audio/thats_tarsier.wav"",""stims/audio/thats_alpaca.wav""]","[""tarsier"",""alpaca""]","passive","2","1","stims/audio/thats_alpaca.wav","[""stims/images/tarsier.png"",""stims/images/alpaca.png""]"
"coact-grid-choice-audio","35","128815","0.0-35.0","p115","4","3","","","","","","3000","","","[""stims/images/wombat.png"",""stims/images/porcupine.png"",""stims/images/zebra.png"",""stims/images/dog.png"",""stims/images/alpaca.png"",""stims/images/tarsier.png"",""stims/images/antelope.png"",""stims/images/koala.png""]","","","","","4","","","stims/images/alpaca.png","","","","","","","","","","passive","2","","stims/audio/thats_alpaca.wav","[""stims/images/tarsier.png"",""stims/images/alpaca.png""]"
"coact-grid","36","132135","0.0-36.0","p115","4","3","","","","","","2015","","","[""stims/images/alpaca.png"",""stims/images/porcupine.png"",""stims/images/dog.png"",""stims/images/koala.png"",""stims/images/antelope.png"",""stims/images/zebra.png"",""stims/images/tarsier.png"",""stims/images/wombat.png""]","","","","","4","","","","","[6,5]","[""stims/images/tarsier.png"",""stims/images/zebra.png""]","[""tarsier"",""zebra""]","[""stims/audio/thats_tarsier.wav"",""stims/audio/thats_zebra.wav""]","left","[""stims/images/tarsier.png"",""stims/images/zebra.png""]","[""stims/audio/thats_tarsier.wav"",""stims/audio/thats_zebra.wav""]","[""tarsier"",""zebra""]","active","3","","",""
"coact-grid-choice","37","135883","0.0-37.0","p115","4","3","","","","","","3747","","","[""stims/images/alpaca.png"",""stims/images/porcupine.png"",""stims/images/dog.png"",""stims/images/koala.png"",""stims/images/antelope.png"",""stims/images/zebra.png"",""stims/images/tarsier.png"",""stims/images/wombat.png""]","","","","","4","","","stims/images/zebra.png","","","[""stims/images/tarsier.png"",""stims/images/zebra.png""]","","","","[""stims/images/tarsier.png"",""stims/images/zebra.png""]","[""stims/audio/thats_tarsier.wav"",""stims/audio/thats_zebra.wav""]","[""tarsier"",""zebra""]","passive","3","1","stims/audio/thats_zebra.wav","[""stims/images/tarsier.png"",""stims/images/zebra.png""]"
"coact-grid-choice-audio","38","138887","0.0-38.0","p115","4","3","","","","","","3000","","","[""stims/images/alpaca.png"",""stims/images/porcupine.png"",""stims/images/dog.png"",""stims/images/koala.png"",""stims/images/antelope.png"",""stims/images/zebra.png"",""stims/images/tarsier.png"",""stims/images/wombat.png""]","","","","","4","","","stims/images/zebra.png","","","","","","","","","","passive","3","","stims/audio/thats_zebra.wav","[""stims/images/tarsier.png"",""stims/images/zebra.png""]"
"coact-grid","39","142209","0.0-39.0","p115","4","3","","","","","","2015.999999999971","","","[""stims/images/porcupine.png"",""stims/images/koala.png"",""stims/images/tarsier.png"",""stims/images/wombat.png"",""stims/images/dog.png"",""stims/images/antelope.png"",""stims/images/zebra.png"",""stims/images/alpaca.png""]","","","","","4","","","","","[4,5]","[""stims/images/dog.png"",""stims/images/antelope.png""]","[""dog"",""antelope""]","[""stims/audio/its_dog.wav"",""stims/audio/its_antelope.wav""]","right","[""stims/images/antelope.png"",""stims/images/dog.png""]","[""stims/audio/its_antelope.wav"",""stims/audio/its_dog.wav""]","[""antelope"",""dog""]","active","4","","",""
"coact-grid-choice","40","144120","0.0-40.0","p115","4","3","","","","","","1911","","","[""stims/images/porcupine.png"",""stims/images/koala.png"",""stims/images/tarsier.png"",""stims/images/wombat.png"",""stims/images/dog.png"",""stims/images/antelope.png"",""stims/images/zebra.png"",""stims/images/alpaca.png""]","","","","","4","","","stims/images/antelope.png","","","[""stims/images/dog.png"",""stims/images/antelope.png""]","","","","[""stims/images/antelope.png"",""stims/images/dog.png""]","[""stims/audio/its_antelope.wav"",""stims/audio/its_dog.wav""]","[""antelope"",""dog""]","passive","4","0","stims/audio/its_antelope.wav","[""stims/images/antelope.png"",""stims/images/dog.png""]"
"coact-grid-choice-audio","41","147124","0.0-41.0","p115","4","3","","","","","","3000","","","[""stims/images/porcupine.png"",""stims/images/koala.png"",""stims/images/tarsier.png"",""stims/images/wombat.png"",""stims/images/dog.png"",""stims/images/antelope.png"",""stims/images/zebra.png"",""stims/images/alpaca.png""]","","","","","4","","","stims/images/antelope.png","","","","","","","","","","passive","4","","stims/audio/its_antelope.wav","[""stims/images/antelope.png"",""stims/images/dog.png""]"
"coact-grid","42","150796","0.0-42.0","p115","4","3","","","","","","2365.999999999971","","","[""stims/images/antelope.png"",""stims/images/koala.png"",""stims/images/dog.png"",""stims/images/wombat.png"",""stims/images/tarsier.png"",""stims/images/zebra.png"",""stims/images/alpaca.png"",""stims/images/porcupine.png""]","","","","","4","","","","","[7,0]","[""stims/images/porcupine.png"",""stims/images/antelope.png""]","[""porcupine"",""antelope""]","[""stims/audio/its_porcupine.wav"",""stims/audio/its_antelope.wav""]","left","[""stims/images/porcupine.png"",""stims/images/antelope.png""]","[""stims/audio/its_porcupine.wav"",""stims/audio/its_antelope.wav""]","[""porcupine"",""antelope""]","active","5","","",""
"coact-grid-choice","43","153742","0.0-43.0","p115","4","3","","","","","","2945","","","[""stims/images/antelope.png"",""stims/images/koala.png"",""stims/images/dog.png"",""stims/images/wombat.png"",""stims/images/tarsier.png"",""stims/images/zebra.png"",""stims/images/alpaca.png"",""stims/images/porcupine.png""]","","","","","4","","","stims/images/antelope.png","","","[""stims/images/porcupine.png"",""stims/images/antelope.png""]","","","","[""stims/images/porcupine.png"",""stims/images/antelope.png""]","[""stims/audio/its_porcupine.wav"",""stims/audio/its_antelope.wav""]","[""porcupine"",""antelope""]","passive","5","1","stims/audio/its_antelope.wav","[""stims/images/porcupine.png"",""stims/images/antelope.png""]"
"coact-grid-choice-audio","44","156746","0.0-44.0","p115","4","3","","","","","","3000","","","[""stims/images/antelope.png"",""stims/images/koala.png"",""stims/images/dog.png"",""stims/images/wombat.png"",""stims/images/tarsier.png"",""stims/images/zebra.png"",""stims/images/alpaca.png"",""stims/images/porcupine.png""]","","","","","4","","","stims/images/antelope.png","","","","","","","","","","passive","5","","stims/audio/its_antelope.wav","[""stims/images/porcupine.png"",""stims/images/antelope.png""]"
"html-button-response","45","163109","0.0-45.0","p115","4","3","","","","","","6361","","0","","","","","","","","","","","","","","","","","","","","","","",""
"coact-test-prompt","46","167104","0.0-46.0","p115","4","3","","","","","","3994","","","[""stims/images/squirrel.png"",""stims/images/cat.png"",""stims/images/horse.png"",""stims/images/frog.png"",""stims/images/duck.png"",""stims/images/cow.png"",""stims/images/wolf.png"",""stims/images/butterfly.png""]","cat","stims/images/cat.png","familiar","practice_posttest","familiar","","","","","","","","","","","","","","","","",""
"coact-test","47","170990","0.0-47.0","p115","4","3","","","","","","179141.184","","","[""stims/images/squirrel.png"",""stims/images/cat.png"",""stims/images/horse.png"",""stims/images/frog.png"",""stims/images/duck.png"",""stims/images/cow.png"",""stims/images/wolf.png"",""stims/images/butterfly.png""]","cat","","familiar","practice_posttest","familiar","stims/audio/find_cat.wav","1","stims/images/cat.png","1","","","","","","","","","","","","",""
"coact-test-prompt","48","172607","0.0-48.0","p115","4","3","","","","","","1615","","","[""stims/images/squirrel.png"",""stims/images/cow.png"",""stims/images/frog.png"",""stims/images/horse.png"",""stims/images/butterfly.png"",""stims/images/duck.png"",""stims/images/wolf.png"",""stims/images/cat.png""]","squirrel","stims/images/squirrel.png","familiar","practice_posttest","familiar","","","","","","","","","","","","","","","","",""
"coact-test","49","179179","0.0-49.0","p115","4","3","","","","","","187325.68","","","[""stims/images/squirrel.png"",""stims/images/cow.png"",""stims/images/frog.png"",""stims/images/horse.png"",""stims/images/butterfly.png"",""stims/images/duck.png"",""stims/images/wolf.png"",""stims/images/cat.png""]","squirrel","","familiar","practice_posttest","familiar","stims/audio/wheres_squirrel.wav","0","stims/images/squirrel.png","1","","","","","","","","","","","","",""
"coact-test-prompt","50","184284","0.0-50.0","p115","4","3","","","","","","5103","","","[""stims/images/alpaca.png"",""stims/images/porcupine.png"",""stims/images/koala.png"",""stims/images/wombat.png"",""stims/images/antelope.png"",""stims/images/zebra.png"",""stims/images/dog.png"",""stims/images/tarsier.png""]","tarsier","stims/images/tarsier.png","unfamiliar","posttest","4","","","","","","","","","","","","","","","","",""
"coact-test","51","188358","0.0-51.0","p115","4","3","","","","","","196493.00533333333","","","[""stims/images/alpaca.png"",""stims/images/porcupine.png"",""stims/images/koala.png"",""stims/images/wombat.png"",""stims/images/antelope.png"",""stims/images/zebra.png"",""stims/images/dog.png"",""stims/images/tarsier.png""]","tarsier","","unfamiliar","posttest","4","stims/audio/find_tarsier.wav","3","stims/images/wombat.png","0","","","","","","","","","","","","",""
"coact-test-prompt","52","191830","0.0-52.0","p115","4","3","","","","","","3471","","","[""stims/images/porcupine.png"",""stims/images/tarsier.png"",""stims/images/alpaca.png"",""stims/images/antelope.png"",""stims/images/koala.png"",""stims/images/dog.png"",""stims/images/wombat.png"",""stims/images/zebra.png""]","zebra","stims/images/zebra.png","familiar","posttest","4","","","","","","","","","","","","","","","","",""
"coact-test","53","194604","0.0-53.0","p115","4","3","","","","","","202731.456","","","[""stims/images/porcupine.png"",""stims/images/tarsier.png"",""stims/images/alpaca.png"",""stims/images/antelope.png"",""stims/images/koala.png"",""stims/images/dog.png"",""stims/images/wombat.png"",""stims/images/zebra.png""]","zebra","","familiar","posttest","4","stims/audio/find_zebra.wav","1","stims/images/tarsier.png","0","","","","","","","","","","","","",""
"coact-test-prompt","54","199847","0.0-54.0","p115","4","3","","","","","","5241.999999999971","","","[""stims/images/tarsier.png"",""stims/images/antelope.png"",""stims/images/dog.png"",""stims/images/alpaca.png"",""stims/images/koala.png"",""stims/images/porcupine.png"",""stims/images/wombat.png"",""stims/images/zebra.png""]","antelope","stims/images/antelope.png","somewhat unfamiliar","posttest","4","","","","","","","","","","","","","","","","",""
"coact-test","55","205242","0.0-55.0","p115","4","3","","","","","","213362.44","","","[""stims/images/tarsier.png"",""stims/images/antelope.png"",""stims/images/dog.png"",""stims/images/alpaca.png"",""stims/images/koala.png"",""stims/images/porcupine.png"",""stims/images/wombat.png"",""stims/images/zebra.png""]","antelope","","somewhat unfamiliar","posttest","4","stims/audio/wheres_antelope.wav","5","stims/images/porcupine.png","0","","","","","","","","","","","","",""
"coact-test-prompt","56","207898","0.0-56.0","p115","4","3","","","","","","2654","","","[""stims/images/dog.png"",""stims/images/porcupine.png"",""stims/images/zebra.png"",""stims/images/tarsier.png"",""stims/images/koala.png"",""stims/images/alpaca.png"",""stims/images/antelope.png"",""stims/images/wombat.png""]","dog","stims/images/dog.png","familiar","posttest","4","","","","","","","","","","","","","","","","",""
"coact-test","57","213147","0.0-57.0","p115","4","3","","","","","","221259.38933333333","","","[""stims/images/dog.png"",""stims/images/porcupine.png"",""stims/images/zebra.png"",""stims/images/tarsier.png"",""stims/images/koala.png"",""stims/images/alpaca.png"",""stims/images/antelope.png"",""stims/images/wombat.png""]","dog","","familiar","posttest","4","stims/audio/wheres_dog.wav","0","stims/images/dog.png","1","","","","","","","","","","","","",""
"coact-test-prompt","58","213457","0.0-58.0","p115","4","3","","","","","","308","","","[""stims/images/tarsier.png"",""stims/images/zebra.png"",""stims/images/alpaca.png"",""stims/images/antelope.png"",""stims/images/porcupine.png"",""stims/images/wombat.png"",""stims/images/koala.png"",""stims/images/dog.png""]","alpaca","stims/images/alpaca.png","somewhat unfamiliar","posttest","4","","","","","","","","","","","","","","","","",""
"coact-test","59","216742","0.0-59.0","p115","4","3","","","","","","224848.832","","","[""stims/images/tarsier.png"",""stims/images/zebra.png"",""stims/images/alpaca.png"",""stims/images/antelope.png"",""stims/images/porcupine.png"",""stims/images/wombat.png"",""stims/images/koala.png"",""stims/images/dog.png""]","alpaca","","somewhat unfamiliar","posttest","4","stims/audio/wheres_alpaca.wav","6","stims/images/koala.png","0","","","","","","","","","","","","",""
"coact-test-prompt","60","219693","0.0-60.0","p115","4","3","","","","","","2950.000000000029","","","[""stims/images/dog.png"",""stims/images/tarsier.png"",""stims/images/antelope.png"",""stims/images/zebra.png"",""stims/images/porcupine.png"",""stims/images/koala.png"",""stims/images/wombat.png"",""stims/images/alpaca.png""]","koala","stims/images/koala.png","somewhat familiar","posttest","4","","","","","","","","","","","","","","","","",""
"coact-test","61","223011","0.0-61.0","p115","4","3","","","","","","231112.59466666667","","","[""stims/images/dog.png"",""stims/images/tarsier.png"",""stims/images/antelope.png"",""stims/images/zebra.png"",""stims/images/porcupine.png"",""stims/images/koala.png"",""stims/images/wombat.png"",""stims/images/alpaca.png""]","koala","","somewhat familiar","posttest","4","stims/audio/find_koala.wav","5","stims/images/koala.png","1","","","","","","","","","","","","",""
"coact-test-prompt","62","227088","0.0-62.0","p115","4","3","","","","","","4076","","","[""stims/images/wombat.png"",""stims/images/dog.png"",""stims/images/porcupine.png"",""stims/images/alpaca.png"",""stims/images/tarsier.png"",""stims/images/zebra.png"",""stims/images/antelope.png"",""stims/images/koala.png""]","wombat","stims/images/wombat.png","unfamiliar","posttest","4","","","","","","","","","","","","","","","","",""
"coact-test","63","231901","0.0-63.0","p115","4","3","","","","","","239995.20533333335","","","[""stims/images/wombat.png"",""stims/images/dog.png"",""stims/images/porcupine.png"",""stims/images/alpaca.png"",""stims/images/tarsier.png"",""stims/images/zebra.png"",""stims/images/antelope.png"",""stims/images/koala.png""]","wombat","","unfamiliar","posttest","4","stims/audio/find_wombat.wav","4","stims/images/tarsier.png","0","","","","","","","","","","","","",""
"coact-test-prompt","64","232066","0.0-64.0","p115","4","3","","","","","","164","","","[""stims/images/antelope.png"",""stims/images/alpaca.png"",""stims/images/wombat.png"",""stims/images/porcupine.png"",""stims/images/dog.png"",""stims/images/koala.png"",""stims/images/zebra.png"",""stims/images/tarsier.png""]","porcupine","stims/images/porcupine.png","somewhat familiar","posttest","4","","","","","","","","","","","","","","","","",""
"coact-test","65","235501","0.0-65.0","p115","4","3","","","","","","243591.22666666665","","","[""stims/images/antelope.png"",""stims/images/alpaca.png"",""stims/images/wombat.png"",""stims/images/porcupine.png"",""stims/images/dog.png"",""stims/images/koala.png"",""stims/images/zebra.png"",""stims/images/tarsier.png""]","porcupine","","somewhat familiar","posttest","4","stims/audio/wheres_porcupine.wav","3","stims/images/porcupine.png","1","","","","","","","","","","","","",""
