"trial_type","trial_index","time_elapsed","internal_node_id","subject_id","round_name","round_index","success","timeout","failed_images","failed_audio","failed_video","rt","stimulus","response","images","target","target_image","target_type","round_type","set","test_audio","choice","chosen_image","correct","choices","chosen_images","chosen_items","chosen_audio_items","first_choice_location","chosen_images_in_order","chosen_audio_in_order","chosen_items_in_order","condition","sample_num","chosen_index","chosen_audio","central_images"
"pavlovia","0","3","0.0-0.0","p065","4","3","","","","","","","","","","","","","","","","","","","","","","","","","","","","","","",""
"preload","1","354","0.0-1.0","p065","4","3","true","false","[]","[]","[]","","","","","","","","","","","","","","","","","","","","","","","","","",""
"html-button-response","2","1531","0.0-2.0","p065","4","3","","","","","","1176","","0","","","","","","","","","","","","","","","","","","","","","","",""
"coact-test-prompt","3","4397","0.0-3.0","p065","4","3","","","","","","2863.999999999998","","","[""stims/images/frog.png"",""stims/images/squirrel.png"",""stims/images/cat.png"",""stims/images/butterfly.png"",""stims/images/duck.png"",""stims/images/wolf.png"",""stims/images/cow.png"",""stims/images/horse.png""]","horse","stims/images/horse.png","familiar","practice_pretest","familiar","","","","","","","","","","","","","","","","",""
"coact-test","4","8319","0.0-4.0","p065","4","3","","","","","","15854.912","","","[""stims/images/frog.png"",""stims/images/squirrel.png"",""stims/images/cat.png"",""stims/images/butterfly.png"",""stims/images/duck.png"",""stims/images/wolf.png"",""stims/images/cow.png"",""stims/images/horse.png""]","horse","","familiar","practice_pretest","familiar","stims/audio/wheres_horse.wav","7","stims/images/horse.png","1","","","","","","","","","","","","",""
"coact-test-prompt","5","12372","0.0-5.0","p065","4","3","","","","","","4051.9999999999964","","","[""stims/images/butterfly.png"",""stims/images/cat.png"",""stims/images/duck.png"",""stims/images/frog.png"",""stims/images/cow.png"",""stims/images/horse.png"",""stims/images/wolf.png"",""stims/images/squirrel.png""]","wolf","stims/images/wolf.png","familiar","practice_pretest","familiar","","","","","","","","","","","","","","","","",""
"coact-test","6","19043","0.0-6.0","p065","4","3","","","","","","26570.936000000005","","","[""stims/images/butterfly.png"",""stims/images/cat.png"",""stims/images/duck.png"",""stims/images/frog.png"",""stims/images/cow.png"",""stims/images/horse.png"",""stims/images/wolf.png"",""stims/images/squirrel.png""]","wolf","","familiar","practice_pretest","familiar","stims/audio/wheres_wolf.wav","6","stims/images/wolf.png","1","","","","","","","","","","","","",""
"coact-test-prompt","7","23865","0.0-7.0","p065","4","3","","","","","","4821","","","[""stims/images/tapir.png"",""stims/images/wombat.png"",""stims/images/elephant.png"",""stims/images/alpaca.png"",""stims/images/armadillo.png"",""stims/images/porcupine.png"",""stims/images/dolphin.png"",""stims/images/rabbit.png""]","rabbit","stims/images/rabbit.png","familiar","pretest","4","","","","","","","","","","","","","","","","",""
"coact-test","8","29484","0.0-8.0","p065","4","3","","","","","","37001.44533333334","","","[""stims/images/tapir.png"",""stims/images/wombat.png"",""stims/images/elephant.png"",""stims/images/alpaca.png"",""stims/images/armadillo.png"",""stims/images/porcupine.png"",""stims/images/dolphin.png"",""stims/images/rabbit.png""]","rabbit","","familiar","pretest","4","stims/audio/wheres_rabbit.wav","7","stims/images/rabbit.png","1","","","","","","","","","","","","",""
"coact-test-prompt","9","32418","0.0-9.0","p065","4","3","","","","","","2933","","","[""stims/images/porcupine.png"",""stims/images/rabbit.png"",""stims/images/dolphin.png"",""stims/images/wombat.png"",""stims/images/alpaca.png"",""stims/images/armadillo.png"",""stims/images/tapir.png"",""stims/images/elephant.png""]","elephant","stims/images/elephant.png","familiar","pretest","4","","","","","","","","","","","","","","","","",""
"coact-test","10","36337","0.0-10.0","p065","4","3","","","","","","43844.89333333333","","","[""stims/images/porcupine.png"",""stims/images/rabbit.png"",""stims/images/dolphin.png"",""stims/images/wombat.png"",""stims/images/alpaca.png"",""stims/images/armadillo.png"",""stims/images/tapir.png"",""stims/images/elephant.png""]","elephant","","familiar","pretest","4","stims/audio/find_elephant.wav","7","stims/images/elephant.png","1","","","","","","","","","","","","",""
"coact-test-prompt","11","41458","0.0-11.0","p065","4","3","","","","","","5119","","","[""stims/images/elephant.png"",""stims/images/tapir.png"",""stims/images/porcupine.png"",""stims/images/armadillo.png"",""stims/images/dolphin.png"",""stims/images/wombat.png"",""stims/images/rabbit.png"",""stims/images/alpaca.png""]","wombat","stims/images/wombat.png","unfamiliar","pretest","4","","","","","","","","","","","","","","","","",""
"coact-test","12","58195","0.0-12.0","p065","4","3","","","","","","65693.85333333333","","","[""stims/images/elephant.png"",""stims/images/tapir.png"",""stims/images/porcupine.png"",""stims/images/armadillo.png"",""stims/images/dolphin.png"",""stims/images/wombat.png"",""stims/images/rabbit.png"",""stims/images/alpaca.png""]","wombat","","unfamiliar","pretest","4","stims/audio/wheres_wombat.wav","7","stims/images/alpaca.png","0","","","","","","","","","","","","",""
"coact-test-prompt","13","64521","0.0-13.0","p065","4","3","","","","","","6324","","","[""stims/images/armadillo.png"",""stims/images/porcupine.png"",""stims/images/tapir.png"",""stims/images/alpaca.png"",""stims/images/dolphin.png"",""stims/images/rabbit.png"",""stims/images/elephant.png"",""stims/images/wombat.png""]","tapir","stims/images/tapir.png","unfamiliar","pretest","4","","","","","","","","","","","","","","","","",""
"coact-test","14","76346","0.0-14.0","p065","4","3","","","","","","83820.792","","","[""stims/images/armadillo.png"",""stims/images/porcupine.png"",""stims/images/tapir.png"",""stims/images/alpaca.png"",""stims/images/dolphin.png"",""stims/images/rabbit.png"",""stims/images/elephant.png"",""stims/images/wombat.png""]","tapir","","unfamiliar","pretest","4","stims/audio/find_tapir.wav","3","stims/images/alpaca.png","0","","","","","","","","","","","","",""
"coact-test-prompt","15","80905","0.0-15.0","p065","4","3","","","","","","4558","","","[""stims/images/tapir.png"",""stims/images/rabbit.png"",""stims/images/dolphin.png"",""stims/images/alpaca.png"",""stims/images/porcupine.png"",""stims/images/elephant.png"",""stims/images/armadillo.png"",""stims/images/wombat.png""]","porcupine","stims/images/porcupine.png","somewhat familiar","pretest","4","","","","","","","","","","","","","","","","",""
"coact-test","16","86275","0.0-16.0","p065","4","3","","","","","","93734.41066666666","","","[""stims/images/tapir.png"",""stims/images/rabbit.png"",""stims/images/dolphin.png"",""stims/images/alpaca.png"",""stims/images/porcupine.png"",""stims/images/elephant.png"",""stims/images/armadillo.png"",""stims/images/wombat.png""]","porcupine","","somewhat familiar","pretest","4","stims/audio/wheres_porcupine.wav","4","stims/images/porcupine.png","1","","","","","","","","","","","","",""
"coact-test-prompt","17","91699","0.0-17.0","p065","4","3","","","","","","5422.000000000015","","","[""stims/images/elephant.png"",""stims/images/armadillo.png"",""stims/images/wombat.png"",""stims/images/dolphin.png"",""stims/images/tapir.png"",""stims/images/alpaca.png"",""stims/images/porcupine.png"",""stims/images/rabbit.png""]","armadillo","stims/images/armadillo.png","somewhat unfamiliar","pretest","4","","","","","","","","","","","","","","","","",""
"coact-test","18","97194","0.0-18.0","p065","4","3","","","","","","104642.61600000001","","","[""stims/images/elephant.png"",""stims/images/armadillo.png"",""stims/images/wombat.png"",""stims/images/dolphin.png"",""stims/images/tapir.png"",""stims/images/alpaca.png"",""stims/images/porcupine.png"",""stims/images/rabbit.png""]","armadillo","","somewhat unfamiliar","pretest","4","stims/audio/wheres_armadillo.wav","4","stims/images/tapir.png","0","","","","","","","","","","","","",""
"coact-test-prompt","19","99328","0.0-19.0","p065","4","3","","","","","","2133","","","[""stims/images/tapir.png"",""stims/images/armadillo.png"",""stims/images/elephant.png"",""stims/images/rabbit.png"",""stims/images/dolphin.png"",""stims/images/porcupine.png"",""stims/images/alpaca.png"",""stims/images/wombat.png""]","alpaca","stims/images/alpaca.png","somewhat unfamiliar","pretest","4","","","","","","","","","","","","","","","","",""
"coact-test","20","103566","0.0-20.0","p065","4","3","","","","","","111005.98666666666","","","[""stims/images/tapir.png"",""stims/images/armadillo.png"",""stims/images/elephant.png"",""stims/images/rabbit.png"",""stims/images/dolphin.png"",""stims/images/porcupine.png"",""stims/images/alpaca.png"",""stims/images/wombat.png""]","alpaca","","somewhat unfamiliar","pretest","4","stims/audio/find_alpaca.wav","6","stims/images/alpaca.png","1","","","","","","","","","","","","",""
"coact-test-prompt","21","106208","0.0-21.0","p065","4","3","","","","","","2641.0000000000146","","","[""stims/images/alpaca.png"",""stims/images/wombat.png"",""stims/images/rabbit.png"",""stims/images/tapir.png"",""stims/images/elephant.png"",""stims/images/armadillo.png"",""stims/images/dolphin.png"",""stims/images/porcupine.png""]","dolphin","stims/images/dolphin.png","somewhat familiar","pretest","4","","","","","","","","","","","","","","","","",""
"coact-test","22","109975","0.0-22.0","p065","4","3","","","","","","117409.10933333333","","","[""stims/images/alpaca.png"",""stims/images/wombat.png"",""stims/images/rabbit.png"",""stims/images/tapir.png"",""stims/images/elephant.png"",""stims/images/armadillo.png"",""stims/images/dolphin.png"",""stims/images/porcupine.png""]","dolphin","","somewhat familiar","pretest","4","stims/audio/find_dolphin.wav","6","stims/images/dolphin.png","1","","","","","","","","","","","","",""
"html-button-response","23","114087","0.0-23.0","p065","4","3","","","","","","4111","","0","","","","","","","","","","","","","","","","","","","","","","",""
"coact-grid","24","120550","0.0-24.0","p065","4","3","","","","","","5154","","","[""stims/images/duck.png"",""stims/images/cat.png"",""stims/images/squirrel.png"",""stims/images/wolf.png"",""stims/images/cow.png"",""stims/images/frog.png"",""stims/images/butterfly.png"",""stims/images/horse.png""]","","","","","familiar","","","","","[4,5]","[""stims/images/cow.png"",""stims/images/frog.png""]","[""cow"",""frog""]","[""stims/audio/thats_cow.wav"",""stims/audio/thats_frog.wav""]","right","[""stims/images/frog.png"",""stims/images/cow.png""]","[""stims/audio/thats_frog.wav"",""stims/audio/thats_cow.wav""]","[""frog"",""cow""]","passive","0","","",""
"coact-grid-choice","25","129738","0.0-25.0","p065","4","3","","","","","","9186.999999999985","","","[""stims/images/duck.png"",""stims/images/cat.png"",""stims/images/squirrel.png"",""stims/images/wolf.png"",""stims/images/cow.png"",""stims/images/frog.png"",""stims/images/butterfly.png"",""stims/images/horse.png""]","","","","","familiar","","","stims/images/frog.png","","","[""stims/images/cow.png"",""stims/images/frog.png""]","","","","[""stims/images/frog.png"",""stims/images/cow.png""]","[""stims/audio/thats_frog.wav"",""stims/audio/thats_cow.wav""]","[""frog"",""cow""]","passive","0","0","stims/audio/thats_frog.wav","[""stims/images/frog.png"",""stims/images/cow.png""]"
"coact-grid-choice-audio","26","132744","0.0-26.0","p065","4","3","","","","","","3003","","","[""stims/images/duck.png"",""stims/images/cat.png"",""stims/images/squirrel.png"",""stims/images/wolf.png"",""stims/images/cow.png"",""stims/images/frog.png"",""stims/images/butterfly.png"",""stims/images/horse.png""]","","","","","familiar","","","stims/images/frog.png","","","","","","","","","","passive","0","","stims/audio/thats_frog.wav","[""stims/images/frog.png"",""stims/images/cow.png""]"
"coact-grid","27","136560","0.0-27.0","p065","4","3","","","","","","2507","","","[""stims/images/elephant.png"",""stims/images/tapir.png"",""stims/images/dolphin.png"",""stims/images/wombat.png"",""stims/images/porcupine.png"",""stims/images/rabbit.png"",""stims/images/alpaca.png"",""stims/images/armadillo.png""]","","","","","4","","","","","[6,0]","[""stims/images/alpaca.png"",""stims/images/elephant.png""]","[""alpaca"",""elephant""]","[""stims/audio/thats_alpaca.wav"",""stims/audio/thats_elephant.wav""]","right","[""stims/images/elephant.png"",""stims/images/alpaca.png""]","[""stims/audio/thats_elephant.wav"",""stims/audio/thats_alpaca.wav""]","[""elephant"",""alpaca""]","passive","0","","",""
"coact-grid-choice","28","140011","0.0-28.0","p065","4","3","","","","","","3449.000000000029","","","[""stims/images/elephant.png"",""stims/images/tapir.png"",""stims/images/dolphin.png"",""stims/images/wombat.png"",""stims/images/porcupine.png"",""stims/images/rabbit.png"",""stims/images/alpaca.png"",""stims/images/armadillo.png""]","","","","","4","","","stims/images/alpaca.png","","","[""stims/images/alpaca.png"",""stims/images/elephant.png""]","","","","[""stims/images/elephant.png"",""stims/images/alpaca.png""]","[""stims/audio/thats_elephant.wav"",""stims/audio/thats_alpaca.wav""]","[""elephant"",""alpaca""]","passive","0","1","stims/audio/thats_alpaca.wav","[""stims/images/elephant.png"",""stims/images/alpaca.png""]"
"coact-grid-choice-audio","29","143020","0.0-29.0","p065","4","3","","","","","","3000","","","[""stims/images/elephant.png"",""stims/images/tapir.png"",""stims/images/dolphin.png"",""stims/images/wombat.png"",""stims/images/porcupine.png"",""stims/images/rabbit.png"",""stims/images/alpaca.png"",""stims/images/armadillo.png""]","","","","","4","","","stims/images/alpaca.png","","","","","","","","","","passive","0","","stims/audio/thats_alpaca.wav","[""stims/images/elephant.png"",""stims/images/alpaca.png""]"
"coact-grid","30","148009","0.0-30.0","p065","4","3","","","","","","3680","","","[""stims/images/dolphin.png"",""stims/images/porcupine.png"",""stims/images/wombat.png"",""stims/images/rabbit.png"",""stims/images/armadillo.png"",""stims/images/elephant.png"",""stims/images/alpaca.png"",""stims/images/tapir.png""]","","","","","4","","","","","[7,2]","[""stims/images/tapir.png"",""stims/images/wombat.png""]","[""tapir"",""wombat""]","[""stims/audio/thats_tapir.wav"",""stims/audio/thats_wombat.wav""]","right","[""stims/images/wombat.png"",""stims/images/tapir.png""]","[""stims/audio/thats_wombat.wav"",""stims/audio/thats_tapir.wav""]","[""wombat"",""tapir""]","passive","1","","",""
"coact-grid-choice","31","157256","0.0-31.0","p065","4","3","","","","","","9244.99999999997","","","[""stims/images/dolphin.png"",""stims/images/porcupine.png"",""stims/images/wombat.png"",""stims/images/rabbit.png"",""stims/images/armadillo.png"",""stims/images/elephant.png"",""stims/images/alpaca.png"",""stims/images/tapir.png""]","","","","","4","","","stims/images/wombat.png","","","[""stims/images/tapir.png"",""stims/images/wombat.png""]","","","","[""stims/images/wombat.png"",""stims/images/tapir.png""]","[""stims/audio/thats_wombat.wav"",""stims/audio/thats_tapir.wav""]","[""wombat"",""tapir""]","passive","1","0","stims/audio/thats_wombat.wav","[""stims/images/wombat.png"",""stims/images/tapir.png""]"
"coact-grid-choice-audio","32","160267","0.0-32.0","p065","4","3","","","","","","3000","","","[""stims/images/dolphin.png"",""stims/images/porcupine.png"",""stims/images/wombat.png"",""stims/images/rabbit.png"",""stims/images/armadillo.png"",""stims/images/elephant.png"",""stims/images/alpaca.png"",""stims/images/tapir.png""]","","","","","4","","","stims/images/wombat.png","","","","","","","","","","passive","1","","stims/audio/thats_wombat.wav","[""stims/images/wombat.png"",""stims/images/tapir.png""]"
"coact-grid","33","163727","0.0-33.0","p065","4","3","","","","","","2153","","","[""stims/images/porcupine.png"",""stims/images/elephant.png"",""stims/images/rabbit.png"",""stims/images/alpaca.png"",""stims/images/armadillo.png"",""stims/images/tapir.png"",""stims/images/dolphin.png"",""stims/images/wombat.png""]","","","","","4","","","","","[2,1]","[""stims/images/rabbit.png"",""stims/images/elephant.png""]","[""rabbit"",""elephant""]","[""stims/audio/its_rabbit.wav"",""stims/audio/its_elephant.wav""]","left","[""stims/images/rabbit.png"",""stims/images/elephant.png""]","[""stims/audio/its_rabbit.wav"",""stims/audio/its_elephant.wav""]","[""rabbit"",""elephant""]","passive","2","","",""
"coact-grid-choice","34","168527","0.0-34.0","p065","4","3","","","","","","4799","","","[""stims/images/porcupine.png"",""stims/images/elephant.png"",""stims/images/rabbit.png"",""stims/images/alpaca.png"",""stims/images/armadillo.png"",""stims/images/tapir.png"",""stims/images/dolphin.png"",""stims/images/wombat.png""]","","","","","4","","","stims/images/elephant.png","","","[""stims/images/rabbit.png"",""stims/images/elephant.png""]","","","","[""stims/images/rabbit.png"",""stims/images/elephant.png""]","[""stims/audio/its_rabbit.wav"",""stims/audio/its_elephant.wav""]","[""rabbit"",""elephant""]","passive","2","1","stims/audio/its_elephant.wav","[""stims/images/rabbit.png"",""stims/images/elephant.png""]"
"coact-grid-choice-audio","35","171531","0.0-35.0","p065","4","3","","","","","","3000","","","[""stims/images/porcupine.png"",""stims/images/elephant.png"",""stims/images/rabbit.png"",""stims/images/alpaca.png"",""stims/images/armadillo.png"",""stims/images/tapir.png"",""stims/images/dolphin.png"",""stims/images/wombat.png""]","","","","","4","","","stims/images/elephant.png","","","","","","","","","","passive","2","","stims/audio/its_elephant.wav","[""stims/images/rabbit.png"",""stims/images/elephant.png""]"
"coact-grid","36","175285","0.0-36.0","p065","4","3","","","","","","2446","","","[""stims/images/rabbit.png"",""stims/images/tapir.png"",""stims/images/alpaca.png"",""stims/images/porcupine.png"",""stims/images/elephant.png"",""stims/images/armadillo.png"",""stims/images/wombat.png"",""stims/images/dolphin.png""]","","","","","4","","","","","[6,1]","[""stims/images/wombat.png"",""stims/images/tapir.png""]","[""wombat"",""tapir""]","[""stims/audio/its_wombat.wav"",""stims/audio/its_tapir.wav""]","left","[""stims/images/wombat.png"",""stims/images/tapir.png""]","[""stims/audio/its_wombat.wav"",""stims/audio/its_tapir.wav""]","[""wombat"",""tapir""]","passive","3","","",""
"coact-grid-choice","37","184723","0.0-37.0","p065","4","3","","","","","","9437","","","[""stims/images/rabbit.png"",""stims/images/tapir.png"",""stims/images/alpaca.png"",""stims/images/porcupine.png"",""stims/images/elephant.png"",""stims/images/armadillo.png"",""stims/images/wombat.png"",""stims/images/dolphin.png""]","","","","","4","","","stims/images/wombat.png","","","[""stims/images/wombat.png"",""stims/images/tapir.png""]","","","","[""stims/images/wombat.png"",""stims/images/tapir.png""]","[""stims/audio/its_wombat.wav"",""stims/audio/its_tapir.wav""]","[""wombat"",""tapir""]","passive","3","0","stims/audio/its_wombat.wav","[""stims/images/wombat.png"",""stims/images/tapir.png""]"
"coact-grid-choice-audio","38","187733","0.0-38.0","p065","4","3","","","","","","3000","","","[""stims/images/rabbit.png"",""stims/images/tapir.png"",""stims/images/alpaca.png"",""stims/images/porcupine.png"",""stims/images/elephant.png"",""stims/images/armadillo.png"",""stims/images/wombat.png"",""stims/images/dolphin.png""]","","","","","4","","","stims/images/wombat.png","","","","","","","","","","passive","3","","stims/audio/its_wombat.wav","[""stims/images/wombat.png"",""stims/images/tapir.png""]"
"coact-grid","39","192285","0.0-39.0","p065","4","3","","","","","","3245","","","[""stims/images/rabbit.png"",""stims/images/elephant.png"",""stims/images/tapir.png"",""stims/images/dolphin.png"",""stims/images/armadillo.png"",""stims/images/alpaca.png"",""stims/images/wombat.png"",""stims/images/porcupine.png""]","","","","","4","","","","","[4,0]","[""stims/images/armadillo.png"",""stims/images/rabbit.png""]","[""armadillo"",""rabbit""]","[""stims/audio/its_armadillo.wav"",""stims/audio/its_rabbit.wav""]","left","[""stims/images/armadillo.png"",""stims/images/rabbit.png""]","[""stims/audio/its_armadillo.wav"",""stims/audio/its_rabbit.wav""]","[""armadillo"",""rabbit""]","passive","4","","",""
"coact-grid-choice","40","195013","0.0-40.0","p065","4","3","","","","","","2726","","","[""stims/images/rabbit.png"",""stims/images/elephant.png"",""stims/images/tapir.png"",""stims/images/dolphin.png"",""stims/images/armadillo.png"",""stims/images/alpaca.png"",""stims/images/wombat.png"",""stims/images/porcupine.png""]","","","","","4","","","stims/images/rabbit.png","","","[""stims/images/armadillo.png"",""stims/images/rabbit.png""]","","","","[""stims/images/armadillo.png"",""stims/images/rabbit.png""]","[""stims/audio/its_armadillo.wav"",""stims/audio/its_rabbit.wav""]","[""armadillo"",""rabbit""]","passive","4","1","stims/audio/its_rabbit.wav","[""stims/images/armadillo.png"",""stims/images/rabbit.png""]"
"coact-grid-choice-audio","41","198022","0.0-41.0","p065","4","3","","","","","","3000","","","[""stims/images/rabbit.png"",""stims/images/elephant.png"",""stims/images/tapir.png"",""stims/images/dolphin.png"",""stims/images/armadillo.png"",""stims/images/alpaca.png"",""stims/images/wombat.png"",""stims/images/porcupine.png""]","","","","","4","","","stims/images/rabbit.png","","","","","","","","","","passive","4","","stims/audio/its_rabbit.wav","[""stims/images/armadillo.png"",""stims/images/rabbit.png""]"
"coact-grid","42","201550","0.0-42.0","p065","4","3","","","","","","2220","","","[""stims/images/wombat.png"",""stims/images/armadillo.png"",""stims/images/porcupine.png"",""stims/images/elephant.png"",""stims/images/rabbit.png"",""stims/images/dolphin.png"",""stims/images/tapir.png"",""stims/images/alpaca.png""]","","","","","4","","","","","[3,1]","[""stims/images/elephant.png"",""stims/images/armadillo.png""]","[""elephant"",""armadillo""]","[""stims/audio/thats_elephant.wav"",""stims/audio/thats_armadillo.wav""]","right","[""stims/images/armadillo.png"",""stims/images/elephant.png""]","[""stims/audio/thats_armadillo.wav"",""stims/audio/thats_elephant.wav""]","[""armadillo"",""elephant""]","passive","5","","",""
"coact-grid-choice","43","216193","0.0-43.0","p065","4","3","","","","","","14641","","","[""stims/images/wombat.png"",""stims/images/armadillo.png"",""stims/images/porcupine.png"",""stims/images/elephant.png"",""stims/images/rabbit.png"",""stims/images/dolphin.png"",""stims/images/tapir.png"",""stims/images/alpaca.png""]","","","","","4","","","stims/images/armadillo.png","","","[""stims/images/elephant.png"",""stims/images/armadillo.png""]","","","","[""stims/images/armadillo.png"",""stims/images/elephant.png""]","[""stims/audio/thats_armadillo.wav"",""stims/audio/thats_elephant.wav""]","[""armadillo"",""elephant""]","passive","5","0","stims/audio/thats_armadillo.wav","[""stims/images/armadillo.png"",""stims/images/elephant.png""]"
"coact-grid-choice-audio","44","219197","0.0-44.0","p065","4","3","","","","","","3000","","","[""stims/images/wombat.png"",""stims/images/armadillo.png"",""stims/images/porcupine.png"",""stims/images/elephant.png"",""stims/images/rabbit.png"",""stims/images/dolphin.png"",""stims/images/tapir.png"",""stims/images/alpaca.png""]","","","","","4","","","stims/images/armadillo.png","","","","","","","","","","passive","5","","stims/audio/thats_armadillo.wav","[""stims/images/armadillo.png"",""stims/images/elephant.png""]"
"html-button-response","45","227110","0.0-45.0","p065","4","3","","","","","","7906","","0","","","","","","","","","","","","","","","","","","","","","","",""
"coact-test-prompt","46","232307","0.0-46.0","p065","4","3","","","","","","5195","","","[""stims/images/horse.png"",""stims/images/butterfly.png"",""stims/images/cow.png"",""stims/images/cat.png"",""stims/images/squirrel.png"",""stims/images/frog.png"",""stims/images/duck.png"",""stims/images/wolf.png""]","horse","stims/images/horse.png","familiar","practice_posttest","familiar","","","","","","","","","","","","","","","","",""
"coact-test","47","236285","0.0-47.0","p065","4","3","","","","","","243590.016","","","[""stims/images/horse.png"",""stims/images/butterfly.png"",""stims/images/cow.png"",""stims/images/cat.png"",""stims/images/squirrel.png"",""stims/images/frog.png"",""stims/images/duck.png"",""stims/images/wolf.png""]","horse","","familiar","practice_posttest","familiar","stims/audio/wheres_horse.wav","0","stims/images/horse.png","1","","","","","","","","","","","","",""
"coact-test-prompt","48","244965","0.0-48.0","p065","4","3","","","","","","8679","","","[""stims/images/duck.png"",""stims/images/cat.png"",""stims/images/frog.png"",""stims/images/horse.png"",""stims/images/squirrel.png"",""stims/images/cow.png"",""stims/images/butterfly.png"",""stims/images/wolf.png""]","wolf","stims/images/wolf.png","familiar","practice_posttest","familiar","","","","","","","","","","","","","","","","",""
"coact-test","49","251093","0.0-49.0","p065","4","3","","","","","","258386.36000000002","","","[""stims/images/duck.png"",""stims/images/cat.png"",""stims/images/frog.png"",""stims/images/horse.png"",""stims/images/squirrel.png"",""stims/images/cow.png"",""stims/images/butterfly.png"",""stims/images/wolf.png""]","wolf","","familiar","practice_posttest","familiar","stims/audio/find_wolf.wav","7","stims/images/wolf.png","1","","","","","","","","","","","","",""
"coact-test-prompt","50","253416","0.0-50.0","p065","4","3","","","","","","2322","","","[""stims/images/porcupine.png"",""stims/images/wombat.png"",""stims/images/alpaca.png"",""stims/images/elephant.png"",""stims/images/dolphin.png"",""stims/images/armadillo.png"",""stims/images/rabbit.png"",""stims/images/tapir.png""]","rabbit","stims/images/rabbit.png","familiar","posttest","4","","","","","","","","","","","","","","","","",""
"coact-test","51","260994","0.0-51.0","p065","4","3","","","","","","268277.9093333333","","","[""stims/images/porcupine.png"",""stims/images/wombat.png"",""stims/images/alpaca.png"",""stims/images/elephant.png"",""stims/images/dolphin.png"",""stims/images/armadillo.png"",""stims/images/rabbit.png"",""stims/images/tapir.png""]","rabbit","","familiar","posttest","4","stims/audio/wheres_rabbit.wav","6","stims/images/rabbit.png","1","","","","","","","","","","","","",""
"coact-test-prompt","52","274710","0.0-52.0","p065","4","3","","","","","","13715","","","[""stims/images/tapir.png"",""stims/images/dolphin.png"",""stims/images/elephant.png"",""stims/images/rabbit.png"",""stims/images/porcupine.png"",""stims/images/armadillo.png"",""stims/images/alpaca.png"",""stims/images/wombat.png""]","wombat","stims/images/wombat.png","unfamiliar","posttest","4","","","","","","","","","","","","","","","","",""
"coact-test","53","281738","0.0-53.0","p065","4","3","","","","","","289001.616","","","[""stims/images/tapir.png"",""stims/images/dolphin.png"",""stims/images/elephant.png"",""stims/images/rabbit.png"",""stims/images/porcupine.png"",""stims/images/armadillo.png"",""stims/images/alpaca.png"",""stims/images/wombat.png""]","wombat","","unfamiliar","posttest","4","stims/audio/wheres_wombat.wav","7","stims/images/wombat.png","1","","","","","","","","","","","","",""
"coact-test-prompt","54","294239","0.0-54.0","p065","4","3","","","","","","12499","","","[""stims/images/armadillo.png"",""stims/images/wombat.png"",""stims/images/rabbit.png"",""stims/images/tapir.png"",""stims/images/alpaca.png"",""stims/images/porcupine.png"",""stims/images/elephant.png"",""stims/images/dolphin.png""]","dolphin","stims/images/dolphin.png","somewhat familiar","posttest","4","","","","","","","","","","","","","","","","",""
"coact-test","55","300213","0.0-55.0","p065","4","3","","","","","","307456.088","","","[""stims/images/armadillo.png"",""stims/images/wombat.png"",""stims/images/rabbit.png"",""stims/images/tapir.png"",""stims/images/alpaca.png"",""stims/images/porcupine.png"",""stims/images/elephant.png"",""stims/images/dolphin.png""]","dolphin","","somewhat familiar","posttest","4","stims/audio/find_dolphin.wav","7","stims/images/dolphin.png","1","","","","","","","","","","","","",""
"coact-test-prompt","56","304494","0.0-56.0","p065","4","3","","","","","","4280","","","[""stims/images/rabbit.png"",""stims/images/elephant.png"",""stims/images/dolphin.png"",""stims/images/wombat.png"",""stims/images/armadillo.png"",""stims/images/alpaca.png"",""stims/images/porcupine.png"",""stims/images/tapir.png""]","alpaca","stims/images/alpaca.png","somewhat unfamiliar","posttest","4","","","","","","","","","","","","","","","","",""
"coact-test","57","308798","0.0-57.0","p065","4","3","","","","","","316030.8346666667","","","[""stims/images/rabbit.png"",""stims/images/elephant.png"",""stims/images/dolphin.png"",""stims/images/wombat.png"",""stims/images/armadillo.png"",""stims/images/alpaca.png"",""stims/images/porcupine.png"",""stims/images/tapir.png""]","alpaca","","somewhat unfamiliar","posttest","4","stims/audio/find_alpaca.wav","5","stims/images/alpaca.png","1","","","","","","","","","","","","",""
"coact-test-prompt","58","313459","0.0-58.0","p065","4","3","","","","","","4659","","","[""stims/images/elephant.png"",""stims/images/dolphin.png"",""stims/images/tapir.png"",""stims/images/armadillo.png"",""stims/images/wombat.png"",""stims/images/alpaca.png"",""stims/images/porcupine.png"",""stims/images/rabbit.png""]","armadillo","stims/images/armadillo.png","somewhat unfamiliar","posttest","4","","","","","","","","","","","","","","","","",""
"coact-test","59","320514","0.0-59.0","p065","4","3","","","","","","327736.872","","","[""stims/images/elephant.png"",""stims/images/dolphin.png"",""stims/images/tapir.png"",""stims/images/armadillo.png"",""stims/images/wombat.png"",""stims/images/alpaca.png"",""stims/images/porcupine.png"",""stims/images/rabbit.png""]","armadillo","","somewhat unfamiliar","posttest","4","stims/audio/wheres_armadillo.wav","2","stims/images/tapir.png","0","","","","","","","","","","","","",""
"coact-test-prompt","60","323541","0.0-60.0","p065","4","3","","","","","","3026","","","[""stims/images/armadillo.png"",""stims/images/elephant.png"",""stims/images/dolphin.png"",""stims/images/porcupine.png"",""stims/images/alpaca.png"",""stims/images/wombat.png"",""stims/images/rabbit.png"",""stims/images/tapir.png""]","porcupine","stims/images/porcupine.png","somewhat familiar","posttest","4","","","","","","","","","","","","","","","","",""
"coact-test","61","329294","0.0-61.0","p065","4","3","","","","","","336506.7893333333","","","[""stims/images/armadillo.png"",""stims/images/elephant.png"",""stims/images/dolphin.png"",""stims/images/porcupine.png"",""stims/images/alpaca.png"",""stims/images/wombat.png"",""stims/images/rabbit.png"",""stims/images/tapir.png""]","porcupine","","somewhat familiar","posttest","4","stims/audio/find_porcupine.wav","5","stims/images/wombat.png","0","","","","","","","","","","","","",""
"coact-test-prompt","62","333429","0.0-62.0","p065","4","3","","","","","","4134","","","[""stims/images/alpaca.png"",""stims/images/rabbit.png"",""stims/images/tapir.png"",""stims/images/armadillo.png"",""stims/images/porcupine.png"",""stims/images/wombat.png"",""stims/images/dolphin.png"",""stims/images/elephant.png""]","tapir","stims/images/tapir.png","unfamiliar","posttest","4","","","","","","","","","","","","","","","","",""
"coact-test","63","340444","0.0-63.0","p065","4","3","","","","","","347646.90133333334","","","[""stims/images/alpaca.png"",""stims/images/rabbit.png"",""stims/images/tapir.png"",""stims/images/armadillo.png"",""stims/images/porcupine.png"",""stims/images/wombat.png"",""stims/images/dolphin.png"",""stims/images/elephant.png""]","tapir","","unfamiliar","posttest","4","stims/audio/find_tapir.wav","3","stims/images/armadillo.png","0","","","","","","","","","","","","",""
"coact-test-prompt","64","344304","0.0-64.0","p065","4","3","","","","","","3859","","","[""stims/images/tapir.png"",""stims/images/rabbit.png"",""stims/images/elephant.png"",""stims/images/alpaca.png"",""stims/images/dolphin.png"",""stims/images/armadillo.png"",""stims/images/porcupine.png"",""stims/images/wombat.png""]","elephant","stims/images/elephant.png","familiar","posttest","4","","","","","","","","","","","","","","","","",""
"coact-test","65","347790","0.0-65.0","p065","4","3","","","","","","354982.0266666667","","","[""stims/images/tapir.png"",""stims/images/rabbit.png"",""stims/images/elephant.png"",""stims/images/alpaca.png"",""stims/images/dolphin.png"",""stims/images/armadillo.png"",""stims/images/porcupine.png"",""stims/images/wombat.png""]","elephant","","familiar","posttest","4","stims/audio/wheres_elephant.wav","2","stims/images/elephant.png","1","","","","","","","","","","","","",""
