"trial_type","trial_index","time_elapsed","internal_node_id","subject_id","round_name","round_index","success","timeout","failed_images","failed_audio","failed_video","rt","stimulus","response","images","target","target_image","target_type","round_type","set","test_audio","choice","chosen_image","correct","choices","chosen_images","chosen_items","chosen_audio_items","first_choice_location","chosen_images_in_order","chosen_audio_in_order","chosen_items_in_order","condition","sample_num","chosen_index","chosen_audio","central_images"
"pavlovia","0","4","0.0-0.0","p076","2","1","","","","","","","","","","","","","","","","","","","","","","","","","","","","","","",""
"preload","1","138","0.0-1.0","p076","2","1","true","false","[]","[]","[]","","","","","","","","","","","","","","","","","","","","","","","","","",""
"html-button-response","2","12860","0.0-2.0","p076","2","1","","","","","","12721.000000000004","","0","","","","","","","","","","","","","","","","","","","","","","",""
"coact-test-prompt","3","19431","0.0-3.0","p076","2","1","","","","","","6570.000000000004","","","[""stims/images/cat.png"",""stims/images/cow.png"",""stims/images/horse.png"",""stims/images/wolf.png"",""stims/images/frog.png"",""stims/images/squirrel.png"",""stims/images/butterfly.png"",""stims/images/duck.png""]","frog","stims/images/frog.png","familiar","practice_pretest","familiar","","","","","","","","","","","","","","","","",""
"coact-test","4","27501","0.0-4.0","p076","2","1","","","","","","39765.664000000004","","","[""stims/images/cat.png"",""stims/images/cow.png"",""stims/images/horse.png"",""stims/images/wolf.png"",""stims/images/frog.png"",""stims/images/squirrel.png"",""stims/images/butterfly.png"",""stims/images/duck.png""]","frog","","familiar","practice_pretest","familiar","stims/audio/find_frog.wav","4","stims/images/frog.png","1","","","","","","","","","","","","",""
"coact-test-prompt","5","33669","0.0-5.0","p076","2","1","","","","","","6166","","","[""stims/images/frog.png"",""stims/images/squirrel.png"",""stims/images/duck.png"",""stims/images/wolf.png"",""stims/images/cow.png"",""stims/images/horse.png"",""stims/images/butterfly.png"",""stims/images/cat.png""]","butterfly","stims/images/butterfly.png","familiar","practice_pretest","familiar","","","","","","","","","","","","","","","","",""
"coact-test","6","40232","0.0-6.0","p076","2","1","","","","","","52483.42133333333","","","[""stims/images/frog.png"",""stims/images/squirrel.png"",""stims/images/duck.png"",""stims/images/wolf.png"",""stims/images/cow.png"",""stims/images/horse.png"",""stims/images/butterfly.png"",""stims/images/cat.png""]","butterfly","","familiar","practice_pretest","familiar","stims/audio/wheres_butterfly.wav","6","stims/images/butterfly.png","1","","","","","","","","","","","","",""
"coact-test-prompt","7","47478","0.0-7.0","p076","2","1","","","","","","7244","","","[""stims/images/lynx.png"",""stims/images/tiger.png"",""stims/images/jaguar.png"",""stims/images/elephant.png"",""stims/images/pangolin.png"",""stims/images/aardvark.png"",""stims/images/echidna.png"",""stims/images/porcupine.png""]","tiger","stims/images/tiger.png","familiar","pretest","2","","","","","","","","","","","","","","","","",""
"coact-test","8","51514","0.0-8.0","p076","2","1","","","","","","63750.616","","","[""stims/images/lynx.png"",""stims/images/tiger.png"",""stims/images/jaguar.png"",""stims/images/elephant.png"",""stims/images/pangolin.png"",""stims/images/aardvark.png"",""stims/images/echidna.png"",""stims/images/porcupine.png""]","tiger","","familiar","pretest","2","stims/audio/find_tiger.wav","0","stims/images/lynx.png","0","","","","","","","","","","","","",""
"coact-test-prompt","9","58872","0.0-9.0","p076","2","1","","","","","","7356","","","[""stims/images/elephant.png"",""stims/images/aardvark.png"",""stims/images/lynx.png"",""stims/images/echidna.png"",""stims/images/jaguar.png"",""stims/images/tiger.png"",""stims/images/porcupine.png"",""stims/images/pangolin.png""]","elephant","stims/images/elephant.png","familiar","pretest","2","","","","","","","","","","","","","","","","",""
"coact-test","10","68726","0.0-10.0","p076","2","1","","","","","","80950.224","","","[""stims/images/elephant.png"",""stims/images/aardvark.png"",""stims/images/lynx.png"",""stims/images/echidna.png"",""stims/images/jaguar.png"",""stims/images/tiger.png"",""stims/images/porcupine.png"",""stims/images/pangolin.png""]","elephant","","familiar","pretest","2","stims/audio/find_elephant.wav","0","stims/images/elephant.png","1","","","","","","","","","","","","",""
"coact-test-prompt","11","76581","0.0-11.0","p076","2","1","","","","","","7954.000000000015","","","[""stims/images/pangolin.png"",""stims/images/jaguar.png"",""stims/images/lynx.png"",""stims/images/porcupine.png"",""stims/images/elephant.png"",""stims/images/echidna.png"",""stims/images/tiger.png"",""stims/images/aardvark.png""]","lynx","stims/images/lynx.png","somewhat unfamiliar","pretest","2","","","","","","","","","","","","","","","","",""
"coact-test","12","83853","0.0-12.0","p076","2","1","","","","","","96159.41866666666","","","[""stims/images/pangolin.png"",""stims/images/jaguar.png"",""stims/images/lynx.png"",""stims/images/porcupine.png"",""stims/images/elephant.png"",""stims/images/echidna.png"",""stims/images/tiger.png"",""stims/images/aardvark.png""]","lynx","","somewhat unfamiliar","pretest","2","stims/audio/wheres_lynx.wav","3","stims/images/porcupine.png","0","","","","","","","","","","","","",""
"coact-test-prompt","13","88199","0.0-13.0","p076","2","1","","","","","","4345","","","[""stims/images/porcupine.png"",""stims/images/lynx.png"",""stims/images/tiger.png"",""stims/images/elephant.png"",""stims/images/aardvark.png"",""stims/images/echidna.png"",""stims/images/pangolin.png"",""stims/images/jaguar.png""]","pangolin","stims/images/pangolin.png","unfamiliar","pretest","2","","","","","","","","","","","","","","","","",""
"coact-test","14","92933","0.0-14.0","p076","2","1","","","","","","105228.8","","","[""stims/images/porcupine.png"",""stims/images/lynx.png"",""stims/images/tiger.png"",""stims/images/elephant.png"",""stims/images/aardvark.png"",""stims/images/echidna.png"",""stims/images/pangolin.png"",""stims/images/jaguar.png""]","pangolin","","unfamiliar","pretest","2","stims/audio/wheres_pangolin.wav","1","stims/images/lynx.png","0","","","","","","","","","","","","",""
"coact-test-prompt","15","97355","0.0-15.0","p076","2","1","","","","","","4421.000000000015","","","[""stims/images/porcupine.png"",""stims/images/echidna.png"",""stims/images/tiger.png"",""stims/images/aardvark.png"",""stims/images/elephant.png"",""stims/images/jaguar.png"",""stims/images/lynx.png"",""stims/images/pangolin.png""]","porcupine","stims/images/porcupine.png","somewhat familiar","pretest","2","","","","","","","","","","","","","","","","",""
"coact-test","16","101678","0.0-16.0","p076","2","1","","","","","","113964.64266666667","","","[""stims/images/porcupine.png"",""stims/images/echidna.png"",""stims/images/tiger.png"",""stims/images/aardvark.png"",""stims/images/elephant.png"",""stims/images/jaguar.png"",""stims/images/lynx.png"",""stims/images/pangolin.png""]","porcupine","","somewhat familiar","pretest","2","stims/audio/find_porcupine.wav","0","stims/images/porcupine.png","1","","","","","","","","","","","","",""
"coact-test-prompt","17","132517","0.0-17.0","p076","2","1","","","","","","30840","","","[""stims/images/tiger.png"",""stims/images/jaguar.png"",""stims/images/elephant.png"",""stims/images/lynx.png"",""stims/images/echidna.png"",""stims/images/aardvark.png"",""stims/images/pangolin.png"",""stims/images/porcupine.png""]","jaguar","stims/images/jaguar.png","somewhat familiar","pretest","2","","","","","","","","","","","","","","","","",""
"coact-test","18","145533","0.0-18.0","p076","2","1","","","","","","157785.48266666668","","","[""stims/images/tiger.png"",""stims/images/jaguar.png"",""stims/images/elephant.png"",""stims/images/lynx.png"",""stims/images/echidna.png"",""stims/images/aardvark.png"",""stims/images/pangolin.png"",""stims/images/porcupine.png""]","jaguar","","somewhat familiar","pretest","2","stims/audio/find_jaguar.wav","7","stims/images/porcupine.png","0","","","","","","","","","","","","",""
"coact-test-prompt","19","147509","0.0-19.0","p076","2","1","","","","","","1976","","","[""stims/images/aardvark.png"",""stims/images/porcupine.png"",""stims/images/lynx.png"",""stims/images/jaguar.png"",""stims/images/tiger.png"",""stims/images/pangolin.png"",""stims/images/elephant.png"",""stims/images/echidna.png""]","echidna","stims/images/echidna.png","unfamiliar","pretest","2","","","","","","","","","","","","","","","","",""
"coact-test","20","155053","0.0-20.0","p076","2","1","","","","","","167292.488","","","[""stims/images/aardvark.png"",""stims/images/porcupine.png"",""stims/images/lynx.png"",""stims/images/jaguar.png"",""stims/images/tiger.png"",""stims/images/pangolin.png"",""stims/images/elephant.png"",""stims/images/echidna.png""]","echidna","","unfamiliar","pretest","2","stims/audio/wheres_echidna.wav","2","stims/images/lynx.png","0","","","","","","","","","","","","",""
"coact-test-prompt","21","167994","0.0-21.0","p076","2","1","","","","","","12941","","","[""stims/images/pangolin.png"",""stims/images/tiger.png"",""stims/images/echidna.png"",""stims/images/jaguar.png"",""stims/images/lynx.png"",""stims/images/elephant.png"",""stims/images/aardvark.png"",""stims/images/porcupine.png""]","aardvark","stims/images/aardvark.png","somewhat unfamiliar","pretest","2","","","","","","","","","","","","","","","","",""
"coact-test","22","182652","0.0-22.0","p076","2","1","","","","","","194871.00533333336","","","[""stims/images/pangolin.png"",""stims/images/tiger.png"",""stims/images/echidna.png"",""stims/images/jaguar.png"",""stims/images/lynx.png"",""stims/images/elephant.png"",""stims/images/aardvark.png"",""stims/images/porcupine.png""]","aardvark","","somewhat unfamiliar","pretest","2","stims/audio/wheres_aardvark.wav","2","stims/images/echidna.png","0","","","","","","","","","","","","",""
"html-button-response","23","187093","0.0-23.0","p076","2","1","","","","","","4440","","0","","","","","","","","","","","","","","","","","","","","","","",""
"coact-grid","24","193704","0.0-24.0","p076","2","1","","","","","","5304","","","[""stims/images/duck.png"",""stims/images/cow.png"",""stims/images/squirrel.png"",""stims/images/butterfly.png"",""stims/images/horse.png"",""stims/images/cat.png"",""stims/images/wolf.png"",""stims/images/frog.png""]","","","","","familiar","","","","","[7,3]","[""stims/images/frog.png"",""stims/images/butterfly.png""]","[""frog"",""butterfly""]","[""stims/audio/its_frog.wav"",""stims/audio/its_butterfly.wav""]","right","[""stims/images/butterfly.png"",""stims/images/frog.png""]","[""stims/audio/its_butterfly.wav"",""stims/audio/its_frog.wav""]","[""butterfly"",""frog""]","passive","0","","",""
"coact-grid-choice","25","200862","0.0-25.0","p076","2","1","","","","","","7157","","","[""stims/images/duck.png"",""stims/images/cow.png"",""stims/images/squirrel.png"",""stims/images/butterfly.png"",""stims/images/horse.png"",""stims/images/cat.png"",""stims/images/wolf.png"",""stims/images/frog.png""]","","","","","familiar","","","stims/images/butterfly.png","","","[""stims/images/frog.png"",""stims/images/butterfly.png""]","","","","[""stims/images/butterfly.png"",""stims/images/frog.png""]","[""stims/audio/its_butterfly.wav"",""stims/audio/its_frog.wav""]","[""butterfly"",""frog""]","active","0","0","stims/audio/its_butterfly.wav","[""stims/images/butterfly.png"",""stims/images/frog.png""]"
"coact-grid-choice-audio","26","203873","0.0-26.0","p076","2","1","","","","","","3003","","","[""stims/images/duck.png"",""stims/images/cow.png"",""stims/images/squirrel.png"",""stims/images/butterfly.png"",""stims/images/horse.png"",""stims/images/cat.png"",""stims/images/wolf.png"",""stims/images/frog.png""]","","","","","familiar","","","stims/images/butterfly.png","","","","","","","","","","active","0","","stims/audio/its_butterfly.wav","[""stims/images/butterfly.png"",""stims/images/frog.png""]"
"coact-grid","27","207884","0.0-27.0","p076","2","1","","","","","","2705","","","[""stims/images/elephant.png"",""stims/images/pangolin.png"",""stims/images/porcupine.png"",""stims/images/aardvark.png"",""stims/images/lynx.png"",""stims/images/jaguar.png"",""stims/images/echidna.png"",""stims/images/tiger.png""]","","","","","2","","","","","[2,0]","[""stims/images/porcupine.png"",""stims/images/elephant.png""]","[""porcupine"",""elephant""]","[""stims/audio/thats_porcupine.wav"",""stims/audio/thats_elephant.wav""]","left","[""stims/images/porcupine.png"",""stims/images/elephant.png""]","[""stims/audio/thats_porcupine.wav"",""stims/audio/thats_elephant.wav""]","[""porcupine"",""elephant""]","passive","0","","",""
"coact-grid-choice","28","214988","0.0-28.0","p076","2","1","","","","","","7103","","","[""stims/images/elephant.png"",""stims/images/pangolin.png"",""stims/images/porcupine.png"",""stims/images/aardvark.png"",""stims/images/lynx.png"",""stims/images/jaguar.png"",""stims/images/echidna.png"",""stims/images/tiger.png""]","","","","","2","","","stims/images/elephant.png","","","[""stims/images/porcupine.png"",""stims/images/elephant.png""]","","","","[""stims/images/porcupine.png"",""stims/images/elephant.png""]","[""stims/audio/thats_porcupine.wav"",""stims/audio/thats_elephant.wav""]","[""porcupine"",""elephant""]","active","0","1","stims/audio/thats_elephant.wav","[""stims/images/porcupine.png"",""stims/images/elephant.png""]"
"coact-grid-choice-audio","29","217998","0.0-29.0","p076","2","1","","","","","","3000","","","[""stims/images/elephant.png"",""stims/images/pangolin.png"",""stims/images/porcupine.png"",""stims/images/aardvark.png"",""stims/images/lynx.png"",""stims/images/jaguar.png"",""stims/images/echidna.png"",""stims/images/tiger.png""]","","","","","2","","","stims/images/elephant.png","","","","","","","","","","active","0","","stims/audio/thats_elephant.wav","[""stims/images/porcupine.png"",""stims/images/elephant.png""]"
"coact-grid","30","221677","0.0-30.0","p076","2","1","","","","","","2370","","","[""stims/images/echidna.png"",""stims/images/jaguar.png"",""stims/images/porcupine.png"",""stims/images/aardvark.png"",""stims/images/pangolin.png"",""stims/images/elephant.png"",""stims/images/lynx.png"",""stims/images/tiger.png""]","","","","","2","","","","","[4,2]","[""stims/images/pangolin.png"",""stims/images/porcupine.png""]","[""pangolin"",""porcupine""]","[""stims/audio/thats_pangolin.wav"",""stims/audio/thats_porcupine.wav""]","right","[""stims/images/porcupine.png"",""stims/images/pangolin.png""]","[""stims/audio/thats_porcupine.wav"",""stims/audio/thats_pangolin.wav""]","[""porcupine"",""pangolin""]","passive","1","","",""
"coact-grid-choice","31","229847","0.0-31.0","p076","2","1","","","","","","8169","","","[""stims/images/echidna.png"",""stims/images/jaguar.png"",""stims/images/porcupine.png"",""stims/images/aardvark.png"",""stims/images/pangolin.png"",""stims/images/elephant.png"",""stims/images/lynx.png"",""stims/images/tiger.png""]","","","","","2","","","stims/images/pangolin.png","","","[""stims/images/pangolin.png"",""stims/images/porcupine.png""]","","","","[""stims/images/porcupine.png"",""stims/images/pangolin.png""]","[""stims/audio/thats_porcupine.wav"",""stims/audio/thats_pangolin.wav""]","[""porcupine"",""pangolin""]","active","1","1","stims/audio/thats_pangolin.wav","[""stims/images/porcupine.png"",""stims/images/pangolin.png""]"
"coact-grid-choice-audio","32","232856","0.0-32.0","p076","2","1","","","","","","3000","","","[""stims/images/echidna.png"",""stims/images/jaguar.png"",""stims/images/porcupine.png"",""stims/images/aardvark.png"",""stims/images/pangolin.png"",""stims/images/elephant.png"",""stims/images/lynx.png"",""stims/images/tiger.png""]","","","","","2","","","stims/images/pangolin.png","","","","","","","","","","active","1","","stims/audio/thats_pangolin.wav","[""stims/images/porcupine.png"",""stims/images/pangolin.png""]"
"coact-grid","33","236702","0.0-33.0","p076","2","1","","","","","","2537.999999999971","","","[""stims/images/aardvark.png"",""stims/images/elephant.png"",""stims/images/lynx.png"",""stims/images/echidna.png"",""stims/images/porcupine.png"",""stims/images/jaguar.png"",""stims/images/tiger.png"",""stims/images/pangolin.png""]","","","","","2","","","","","[6,7]","[""stims/images/tiger.png"",""stims/images/pangolin.png""]","[""tiger"",""pangolin""]","[""stims/audio/thats_tiger.wav"",""stims/audio/thats_pangolin.wav""]","right","[""stims/images/pangolin.png"",""stims/images/tiger.png""]","[""stims/audio/thats_pangolin.wav"",""stims/audio/thats_tiger.wav""]","[""pangolin"",""tiger""]","passive","2","","",""
"coact-grid-choice","34","246040","0.0-34.0","p076","2","1","","","","","","9336","","","[""stims/images/aardvark.png"",""stims/images/elephant.png"",""stims/images/lynx.png"",""stims/images/echidna.png"",""stims/images/porcupine.png"",""stims/images/jaguar.png"",""stims/images/tiger.png"",""stims/images/pangolin.png""]","","","","","2","","","stims/images/tiger.png","","","[""stims/images/tiger.png"",""stims/images/pangolin.png""]","","","","[""stims/images/pangolin.png"",""stims/images/tiger.png""]","[""stims/audio/thats_pangolin.wav"",""stims/audio/thats_tiger.wav""]","[""pangolin"",""tiger""]","active","2","1","stims/audio/thats_tiger.wav","[""stims/images/pangolin.png"",""stims/images/tiger.png""]"
"coact-grid-choice-audio","35","249049","0.0-35.0","p076","2","1","","","","","","3000","","","[""stims/images/aardvark.png"",""stims/images/elephant.png"",""stims/images/lynx.png"",""stims/images/echidna.png"",""stims/images/porcupine.png"",""stims/images/jaguar.png"",""stims/images/tiger.png"",""stims/images/pangolin.png""]","","","","","2","","","stims/images/tiger.png","","","","","","","","","","active","2","","stims/audio/thats_tiger.wav","[""stims/images/pangolin.png"",""stims/images/tiger.png""]"
"coact-grid","36","253296","0.0-36.0","p076","2","1","","","","","","2938","","","[""stims/images/porcupine.png"",""stims/images/aardvark.png"",""stims/images/tiger.png"",""stims/images/elephant.png"",""stims/images/echidna.png"",""stims/images/lynx.png"",""stims/images/pangolin.png"",""stims/images/jaguar.png""]","","","","","2","","","","","[0,6]","[""stims/images/porcupine.png"",""stims/images/pangolin.png""]","[""porcupine"",""pangolin""]","[""stims/audio/its_porcupine.wav"",""stims/audio/its_pangolin.wav""]","left","[""stims/images/porcupine.png"",""stims/images/pangolin.png""]","[""stims/audio/its_porcupine.wav"",""stims/audio/its_pangolin.wav""]","[""porcupine"",""pangolin""]","passive","3","","",""
"coact-grid-choice","37","257079","0.0-37.0","p076","2","1","","","","","","3781","","","[""stims/images/porcupine.png"",""stims/images/aardvark.png"",""stims/images/tiger.png"",""stims/images/elephant.png"",""stims/images/echidna.png"",""stims/images/lynx.png"",""stims/images/pangolin.png"",""stims/images/jaguar.png""]","","","","","2","","","stims/images/pangolin.png","","","[""stims/images/porcupine.png"",""stims/images/pangolin.png""]","","","","[""stims/images/porcupine.png"",""stims/images/pangolin.png""]","[""stims/audio/its_porcupine.wav"",""stims/audio/its_pangolin.wav""]","[""porcupine"",""pangolin""]","active","3","1","stims/audio/its_pangolin.wav","[""stims/images/porcupine.png"",""stims/images/pangolin.png""]"
"coact-grid-choice-audio","38","260090","0.0-38.0","p076","2","1","","","","","","3003","","","[""stims/images/porcupine.png"",""stims/images/aardvark.png"",""stims/images/tiger.png"",""stims/images/elephant.png"",""stims/images/echidna.png"",""stims/images/lynx.png"",""stims/images/pangolin.png"",""stims/images/jaguar.png""]","","","","","2","","","stims/images/pangolin.png","","","","","","","","","","active","3","","stims/audio/its_pangolin.wav","[""stims/images/porcupine.png"",""stims/images/pangolin.png""]"
"coact-grid","39","263525","0.0-39.0","p076","2","1","","","","","","2129","","","[""stims/images/aardvark.png"",""stims/images/pangolin.png"",""stims/images/lynx.png"",""stims/images/jaguar.png"",""stims/images/porcupine.png"",""stims/images/echidna.png"",""stims/images/elephant.png"",""stims/images/tiger.png""]","","","","","2","","","","","[7,1]","[""stims/images/tiger.png"",""stims/images/pangolin.png""]","[""tiger"",""pangolin""]","[""stims/audio/its_tiger.wav"",""stims/audio/its_pangolin.wav""]","right","[""stims/images/pangolin.png"",""stims/images/tiger.png""]","[""stims/audio/its_pangolin.wav"",""stims/audio/its_tiger.wav""]","[""pangolin"",""tiger""]","passive","4","","",""
"coact-grid-choice","40","271455","0.0-40.0","p076","2","1","","","","","","7929","","","[""stims/images/aardvark.png"",""stims/images/pangolin.png"",""stims/images/lynx.png"",""stims/images/jaguar.png"",""stims/images/porcupine.png"",""stims/images/echidna.png"",""stims/images/elephant.png"",""stims/images/tiger.png""]","","","","","2","","","stims/images/tiger.png","","","[""stims/images/tiger.png"",""stims/images/pangolin.png""]","","","","[""stims/images/pangolin.png"",""stims/images/tiger.png""]","[""stims/audio/its_pangolin.wav"",""stims/audio/its_tiger.wav""]","[""pangolin"",""tiger""]","active","4","1","stims/audio/its_tiger.wav","[""stims/images/pangolin.png"",""stims/images/tiger.png""]"
"coact-grid-choice-audio","41","274464","0.0-41.0","p076","2","1","","","","","","3003","","","[""stims/images/aardvark.png"",""stims/images/pangolin.png"",""stims/images/lynx.png"",""stims/images/jaguar.png"",""stims/images/porcupine.png"",""stims/images/echidna.png"",""stims/images/elephant.png"",""stims/images/tiger.png""]","","","","","2","","","stims/images/tiger.png","","","","","","","","","","active","4","","stims/audio/its_tiger.wav","[""stims/images/pangolin.png"",""stims/images/tiger.png""]"
"coact-grid","42","278155","0.0-42.0","p076","2","1","","","","","","2385","","","[""stims/images/aardvark.png"",""stims/images/porcupine.png"",""stims/images/echidna.png"",""stims/images/lynx.png"",""stims/images/elephant.png"",""stims/images/tiger.png"",""stims/images/jaguar.png"",""stims/images/pangolin.png""]","","","","","2","","","","","[1,0]","[""stims/images/porcupine.png"",""stims/images/aardvark.png""]","[""porcupine"",""aardvark""]","[""stims/audio/its_porcupine.wav"",""stims/audio/its_aardvark.wav""]","left","[""stims/images/porcupine.png"",""stims/images/aardvark.png""]","[""stims/audio/its_porcupine.wav"",""stims/audio/its_aardvark.wav""]","[""porcupine"",""aardvark""]","passive","5","","",""
"coact-grid-choice","43","284896","0.0-43.0","p076","2","1","","","","","","6739","","","[""stims/images/aardvark.png"",""stims/images/porcupine.png"",""stims/images/echidna.png"",""stims/images/lynx.png"",""stims/images/elephant.png"",""stims/images/tiger.png"",""stims/images/jaguar.png"",""stims/images/pangolin.png""]","","","","","2","","","stims/images/aardvark.png","","","[""stims/images/porcupine.png"",""stims/images/aardvark.png""]","","","","[""stims/images/porcupine.png"",""stims/images/aardvark.png""]","[""stims/audio/its_porcupine.wav"",""stims/audio/its_aardvark.wav""]","[""porcupine"",""aardvark""]","active","5","1","stims/audio/its_aardvark.wav","[""stims/images/porcupine.png"",""stims/images/aardvark.png""]"
"coact-grid-choice-audio","44","287907","0.0-44.0","p076","2","1","","","","","","3003","","","[""stims/images/aardvark.png"",""stims/images/porcupine.png"",""stims/images/echidna.png"",""stims/images/lynx.png"",""stims/images/elephant.png"",""stims/images/tiger.png"",""stims/images/jaguar.png"",""stims/images/pangolin.png""]","","","","","2","","","stims/images/aardvark.png","","","","","","","","","","active","5","","stims/audio/its_aardvark.wav","[""stims/images/porcupine.png"",""stims/images/aardvark.png""]"
"html-button-response","45","314494","0.0-45.0","p076","2","1","","","","","","26586.00000000006","","0","","","","","","","","","","","","","","","","","","","","","","",""
"coact-test-prompt","46","319361","0.0-46.0","p076","2","1","","","","","","4866","","","[""stims/images/frog.png"",""stims/images/duck.png"",""stims/images/wolf.png"",""stims/images/cow.png"",""stims/images/cat.png"",""stims/images/horse.png"",""stims/images/butterfly.png"",""stims/images/squirrel.png""]","frog","stims/images/frog.png","familiar","practice_posttest","familiar","","","","","","","","","","","","","","","","",""
"coact-test","47","336599","0.0-47.0","p076","2","1","","","","","","348671.64","","","[""stims/images/frog.png"",""stims/images/duck.png"",""stims/images/wolf.png"",""stims/images/cow.png"",""stims/images/cat.png"",""stims/images/horse.png"",""stims/images/butterfly.png"",""stims/images/squirrel.png""]","frog","","familiar","practice_posttest","familiar","stims/audio/find_frog.wav","0","stims/images/frog.png","1","","","","","","","","","","","","",""
"coact-test-prompt","48","338933","0.0-48.0","p076","2","1","","","","","","2332","","","[""stims/images/squirrel.png"",""stims/images/frog.png"",""stims/images/horse.png"",""stims/images/duck.png"",""stims/images/wolf.png"",""stims/images/cat.png"",""stims/images/cow.png"",""stims/images/butterfly.png""]","butterfly","stims/images/butterfly.png","familiar","practice_posttest","familiar","","","","","","","","","","","","","","","","",""
"coact-test","49","351940","0.0-49.0","p076","2","1","","","","","","363994.06933333335","","","[""stims/images/squirrel.png"",""stims/images/frog.png"",""stims/images/horse.png"",""stims/images/duck.png"",""stims/images/wolf.png"",""stims/images/cat.png"",""stims/images/cow.png"",""stims/images/butterfly.png""]","butterfly","","familiar","practice_posttest","familiar","stims/audio/find_butterfly.wav","7","stims/images/butterfly.png","1","","","","","","","","","","","","",""
"coact-test-prompt","50","358801","0.0-50.0","p076","2","1","","","","","","6861","","","[""stims/images/pangolin.png"",""stims/images/tiger.png"",""stims/images/elephant.png"",""stims/images/jaguar.png"",""stims/images/porcupine.png"",""stims/images/lynx.png"",""stims/images/aardvark.png"",""stims/images/echidna.png""]","jaguar","stims/images/jaguar.png","somewhat familiar","posttest","2","","","","","","","","","","","","","","","","",""
"coact-test","51","369684","0.0-51.0","p076","2","1","","","","","","381719.20000000007","","","[""stims/images/pangolin.png"",""stims/images/tiger.png"",""stims/images/elephant.png"",""stims/images/jaguar.png"",""stims/images/porcupine.png"",""stims/images/lynx.png"",""stims/images/aardvark.png"",""stims/images/echidna.png""]","jaguar","","somewhat familiar","posttest","2","stims/audio/find_jaguar.wav","7","stims/images/echidna.png","0","","","","","","","","","","","","",""
"coact-test-prompt","52","390679","0.0-52.0","p076","2","1","","","","","","20994","","","[""stims/images/elephant.png"",""stims/images/tiger.png"",""stims/images/lynx.png"",""stims/images/porcupine.png"",""stims/images/echidna.png"",""stims/images/pangolin.png"",""stims/images/aardvark.png"",""stims/images/jaguar.png""]","tiger","stims/images/tiger.png","familiar","posttest","2","","","","","","","","","","","","","","","","",""
"coact-test","53","396206","0.0-53.0","p076","2","1","","","","","","408210.32266666665","","","[""stims/images/elephant.png"",""stims/images/tiger.png"",""stims/images/lynx.png"",""stims/images/porcupine.png"",""stims/images/echidna.png"",""stims/images/pangolin.png"",""stims/images/aardvark.png"",""stims/images/jaguar.png""]","tiger","","familiar","posttest","2","stims/audio/wheres_tiger.wav","1","stims/images/tiger.png","1","","","","","","","","","","","","",""
"coact-test-prompt","54","406819","0.0-54.0","p076","2","1","","","","","","10612","","","[""stims/images/tiger.png"",""stims/images/elephant.png"",""stims/images/lynx.png"",""stims/images/jaguar.png"",""stims/images/porcupine.png"",""stims/images/echidna.png"",""stims/images/pangolin.png"",""stims/images/aardvark.png""]","porcupine","stims/images/porcupine.png","somewhat familiar","posttest","2","","","","","","","","","","","","","","","","",""
"coact-test","55","412164","0.0-55.0","p076","2","1","","","","","","424153.184","","","[""stims/images/tiger.png"",""stims/images/elephant.png"",""stims/images/lynx.png"",""stims/images/jaguar.png"",""stims/images/porcupine.png"",""stims/images/echidna.png"",""stims/images/pangolin.png"",""stims/images/aardvark.png""]","porcupine","","somewhat familiar","posttest","2","stims/audio/find_porcupine.wav","5","stims/images/echidna.png","0","","","","","","","","","","","","",""
"coact-test-prompt","56","423765","0.0-56.0","p076","2","1","","","","","","11600","","","[""stims/images/elephant.png"",""stims/images/aardvark.png"",""stims/images/pangolin.png"",""stims/images/tiger.png"",""stims/images/lynx.png"",""stims/images/echidna.png"",""stims/images/jaguar.png"",""stims/images/porcupine.png""]","lynx","stims/images/lynx.png","somewhat unfamiliar","posttest","2","","","","","","","","","","","","","","","","",""
"coact-test","57","427898","0.0-57.0","p076","2","1","","","","","","439871.23733333335","","","[""stims/images/elephant.png"",""stims/images/aardvark.png"",""stims/images/pangolin.png"",""stims/images/tiger.png"",""stims/images/lynx.png"",""stims/images/echidna.png"",""stims/images/jaguar.png"",""stims/images/porcupine.png""]","lynx","","somewhat unfamiliar","posttest","2","stims/audio/wheres_lynx.wav","0","stims/images/elephant.png","0","","","","","","","","","","","","",""
"coact-test-prompt","58","430550","0.0-58.0","p076","2","1","","","","","","2650.000000000058","","","[""stims/images/lynx.png"",""stims/images/porcupine.png"",""stims/images/pangolin.png"",""stims/images/echidna.png"",""stims/images/tiger.png"",""stims/images/elephant.png"",""stims/images/aardvark.png"",""stims/images/jaguar.png""]","pangolin","stims/images/pangolin.png","unfamiliar","posttest","2","","","","","","","","","","","","","","","","",""
"coact-test","59","433593","0.0-59.0","p076","2","1","","","","","","445559.4533333333","","","[""stims/images/lynx.png"",""stims/images/porcupine.png"",""stims/images/pangolin.png"",""stims/images/echidna.png"",""stims/images/tiger.png"",""stims/images/elephant.png"",""stims/images/aardvark.png"",""stims/images/jaguar.png""]","pangolin","","unfamiliar","posttest","2","stims/audio/wheres_pangolin.wav","1","stims/images/porcupine.png","0","","","","","","","","","","","","",""
"coact-test-prompt","60","442573","0.0-60.0","p076","2","1","","","","","","8979.000000000058","","","[""stims/images/echidna.png"",""stims/images/pangolin.png"",""stims/images/jaguar.png"",""stims/images/lynx.png"",""stims/images/aardvark.png"",""stims/images/porcupine.png"",""stims/images/elephant.png"",""stims/images/tiger.png""]","echidna","stims/images/echidna.png","unfamiliar","posttest","2","","","","","","","","","","","","","","","","",""
"coact-test","61","447071","0.0-61.0","p076","2","1","","","","","","459026.42933333333","","","[""stims/images/echidna.png"",""stims/images/pangolin.png"",""stims/images/jaguar.png"",""stims/images/lynx.png"",""stims/images/aardvark.png"",""stims/images/porcupine.png"",""stims/images/elephant.png"",""stims/images/tiger.png""]","echidna","","unfamiliar","posttest","2","stims/audio/find_echidna.wav","4","stims/images/aardvark.png","0","","","","","","","","","","","","",""
"coact-test-prompt","62","459224","0.0-62.0","p076","2","1","","","","","","12151.999999999942","","","[""stims/images/aardvark.png"",""stims/images/elephant.png"",""stims/images/lynx.png"",""stims/images/echidna.png"",""stims/images/pangolin.png"",""stims/images/jaguar.png"",""stims/images/porcupine.png"",""stims/images/tiger.png""]","aardvark","stims/images/aardvark.png","somewhat unfamiliar","posttest","2","","","","","","","","","","","","","","","","",""
"coact-test","63","464019","0.0-63.0","p076","2","1","","","","","","475958.77866666665","","","[""stims/images/aardvark.png"",""stims/images/elephant.png"",""stims/images/lynx.png"",""stims/images/echidna.png"",""stims/images/pangolin.png"",""stims/images/jaguar.png"",""stims/images/porcupine.png"",""stims/images/tiger.png""]","aardvark","","somewhat unfamiliar","posttest","2","stims/audio/find_aardvark.wav","2","stims/images/lynx.png","0","","","","","","","","","","","","",""
"coact-test-prompt","64","466557","0.0-64.0","p076","2","1","","","","","","2537","","","[""stims/images/lynx.png"",""stims/images/pangolin.png"",""stims/images/aardvark.png"",""stims/images/tiger.png"",""stims/images/elephant.png"",""stims/images/echidna.png"",""stims/images/jaguar.png"",""stims/images/porcupine.png""]","elephant","stims/images/elephant.png","familiar","posttest","2","","","","","","","","","","","","","","","","",""
"coact-test","65","470876","0.0-65.0","p076","2","1","","","","","","482808.4453333334","","","[""stims/images/lynx.png"",""stims/images/pangolin.png"",""stims/images/aardvark.png"",""stims/images/tiger.png"",""stims/images/elephant.png"",""stims/images/echidna.png"",""stims/images/jaguar.png"",""stims/images/porcupine.png""]","elephant","","familiar","posttest","2","stims/audio/wheres_elephant.wav","4","stims/images/elephant.png","1","","","","","","","","","","","","",""
