"trial_type","trial_index","time_elapsed","internal_node_id","subject_id","round_name","round_index","success","timeout","failed_images","failed_audio","failed_video","rt","stimulus","response","images","target","target_image","target_type","round_type","set","test_audio","choice","chosen_image","correct","choices","chosen_images","chosen_items","chosen_audio_items","first_choice_location","chosen_images_in_order","chosen_audio_in_order","chosen_items_in_order","condition","sample_num","chosen_index","chosen_audio","central_images"
"pavlovia","0","2","0.0-0.0","p093","2","1","","","","","","","","","","","","","","","","","","","","","","","","","","","","","","",""
"preload","1","133","0.0-1.0","p093","2","1","true","false","[]","[]","[]","","","","","","","","","","","","","","","","","","","","","","","","","",""
"html-button-response","2","3972","0.0-2.0","p093","2","1","","","","","","3838","","0","","","","","","","","","","","","","","","","","","","","","","",""
"coact-test-prompt","3","6336","0.0-3.0","p093","2","1","","","","","","2362","","","[""stims/images/cow.png"",""stims/images/horse.png"",""stims/images/wolf.png"",""stims/images/cat.png"",""stims/images/duck.png"",""stims/images/squirrel.png"",""stims/images/frog.png"",""stims/images/butterfly.png""]","squirrel","stims/images/squirrel.png","familiar","practice_pretest","familiar","","","","","","","","","","","","","","","","",""
"coact-test","4","21319","0.0-4.0","p093","2","1","","","","","","25836.757333333335","","","[""stims/images/cow.png"",""stims/images/horse.png"",""stims/images/wolf.png"",""stims/images/cat.png"",""stims/images/duck.png"",""stims/images/squirrel.png"",""stims/images/frog.png"",""stims/images/butterfly.png""]","squirrel","","familiar","practice_pretest","familiar","stims/audio/find_squirrel.wav","7","stims/images/butterfly.png","0","","","","","","","","","","","","",""
"coact-test-prompt","5","28741","0.0-5.0","p093","2","1","","","","","","7420","","","[""stims/images/duck.png"",""stims/images/horse.png"",""stims/images/wolf.png"",""stims/images/butterfly.png"",""stims/images/squirrel.png"",""stims/images/cow.png"",""stims/images/cat.png"",""stims/images/frog.png""]","butterfly","stims/images/butterfly.png","familiar","practice_pretest","familiar","","","","","","","","","","","","","","","","",""
"coact-test","6","32193","0.0-6.0","p093","2","1","","","","","","36689.354666666666","","","[""stims/images/duck.png"",""stims/images/horse.png"",""stims/images/wolf.png"",""stims/images/butterfly.png"",""stims/images/squirrel.png"",""stims/images/cow.png"",""stims/images/cat.png"",""stims/images/frog.png""]","butterfly","","familiar","practice_pretest","familiar","stims/audio/wheres_butterfly.wav","3","stims/images/butterfly.png","1","","","","","","","","","","","","",""
"coact-test-prompt","7","33008","0.0-7.0","p093","2","1","","","","","","814.0000000000073","","","[""stims/images/turtle.png"",""stims/images/nyala.png"",""stims/images/tiger.png"",""stims/images/dolphin.png"",""stims/images/hippopotamus.png"",""stims/images/manatee.png"",""stims/images/sloth.png"",""stims/images/pangolin.png""]","tiger","stims/images/tiger.png","familiar","pretest","2","","","","","","","","","","","","","","","","",""
"coact-test","8","37996","0.0-8.0","p093","2","1","","","","","","42489.088","","","[""stims/images/turtle.png"",""stims/images/nyala.png"",""stims/images/tiger.png"",""stims/images/dolphin.png"",""stims/images/hippopotamus.png"",""stims/images/manatee.png"",""stims/images/sloth.png"",""stims/images/pangolin.png""]","tiger","","familiar","pretest","2","stims/audio/find_tiger.wav","2","stims/images/tiger.png","1","","","","","","","","","","","","",""
"coact-test-prompt","9","38095","0.0-9.0","p093","2","1","","","","","","99","","","[""stims/images/hippopotamus.png"",""stims/images/pangolin.png"",""stims/images/dolphin.png"",""stims/images/sloth.png"",""stims/images/tiger.png"",""stims/images/manatee.png"",""stims/images/nyala.png"",""stims/images/turtle.png""]","dolphin","stims/images/dolphin.png","somewhat familiar","pretest","2","","","","","","","","","","","","","","","","",""
"coact-test","10","42690","0.0-10.0","p093","2","1","","","","","","47178.005333333334","","","[""stims/images/hippopotamus.png"",""stims/images/pangolin.png"",""stims/images/dolphin.png"",""stims/images/sloth.png"",""stims/images/tiger.png"",""stims/images/manatee.png"",""stims/images/nyala.png"",""stims/images/turtle.png""]","dolphin","","somewhat familiar","pretest","2","stims/audio/wheres_dolphin.wav","0","stims/images/hippopotamus.png","0","","","","","","","","","","","","",""
"coact-test-prompt","11","43258","0.0-11.0","p093","2","1","","","","","","566.0000000000073","","","[""stims/images/pangolin.png"",""stims/images/hippopotamus.png"",""stims/images/sloth.png"",""stims/images/manatee.png"",""stims/images/tiger.png"",""stims/images/nyala.png"",""stims/images/turtle.png"",""stims/images/dolphin.png""]","sloth","stims/images/sloth.png","somewhat unfamiliar","pretest","2","","","","","","","","","","","","","","","","",""
"coact-test","12","47132","0.0-12.0","p093","2","1","","","","","","51614.83733333334","","","[""stims/images/pangolin.png"",""stims/images/hippopotamus.png"",""stims/images/sloth.png"",""stims/images/manatee.png"",""stims/images/tiger.png"",""stims/images/nyala.png"",""stims/images/turtle.png"",""stims/images/dolphin.png""]","sloth","","somewhat unfamiliar","pretest","2","stims/audio/find_sloth.wav","0","stims/images/pangolin.png","0","","","","","","","","","","","","",""
"coact-test-prompt","13","47255","0.0-13.0","p093","2","1","","","","","","121","","","[""stims/images/nyala.png"",""stims/images/tiger.png"",""stims/images/sloth.png"",""stims/images/pangolin.png"",""stims/images/turtle.png"",""stims/images/hippopotamus.png"",""stims/images/dolphin.png"",""stims/images/manatee.png""]","hippopotamus","stims/images/hippopotamus.png","somewhat familiar","pretest","2","","","","","","","","","","","","","","","","",""
"coact-test","14","52805","0.0-14.0","p093","2","1","","","","","","57283.84533333333","","","[""stims/images/nyala.png"",""stims/images/tiger.png"",""stims/images/sloth.png"",""stims/images/pangolin.png"",""stims/images/turtle.png"",""stims/images/hippopotamus.png"",""stims/images/dolphin.png"",""stims/images/manatee.png""]","hippopotamus","","somewhat familiar","pretest","2","stims/audio/find_hippopotamus.wav","4","stims/images/turtle.png","0","","","","","","","","","","","","",""
"coact-test-prompt","15","53397","0.0-15.0","p093","2","1","","","","","","589","","","[""stims/images/dolphin.png"",""stims/images/manatee.png"",""stims/images/tiger.png"",""stims/images/nyala.png"",""stims/images/turtle.png"",""stims/images/pangolin.png"",""stims/images/sloth.png"",""stims/images/hippopotamus.png""]","pangolin","stims/images/pangolin.png","unfamiliar","pretest","2","","","","","","","","","","","","","","","","",""
"coact-test","16","56974","0.0-16.0","p093","2","1","","","","","","61447.69866666667","","","[""stims/images/dolphin.png"",""stims/images/manatee.png"",""stims/images/tiger.png"",""stims/images/nyala.png"",""stims/images/turtle.png"",""stims/images/pangolin.png"",""stims/images/sloth.png"",""stims/images/hippopotamus.png""]","pangolin","","unfamiliar","pretest","2","stims/audio/wheres_pangolin.wav","6","stims/images/sloth.png","0","","","","","","","","","","","","",""
"coact-test-prompt","17","58172","0.0-17.0","p093","2","1","","","","","","1196","","","[""stims/images/sloth.png"",""stims/images/nyala.png"",""stims/images/manatee.png"",""stims/images/turtle.png"",""stims/images/pangolin.png"",""stims/images/dolphin.png"",""stims/images/hippopotamus.png"",""stims/images/tiger.png""]","turtle","stims/images/turtle.png","familiar","pretest","2","","","","","","","","","","","","","","","","",""
"coact-test","18","63976","0.0-18.0","p093","2","1","","","","","","68443.92533333333","","","[""stims/images/sloth.png"",""stims/images/nyala.png"",""stims/images/manatee.png"",""stims/images/turtle.png"",""stims/images/pangolin.png"",""stims/images/dolphin.png"",""stims/images/hippopotamus.png"",""stims/images/tiger.png""]","turtle","","familiar","pretest","2","stims/audio/find_turtle.wav","3","stims/images/turtle.png","1","","","","","","","","","","","","",""
"coact-test-prompt","19","65154","0.0-19.0","p093","2","1","","","","","","1177","","","[""stims/images/tiger.png"",""stims/images/dolphin.png"",""stims/images/turtle.png"",""stims/images/sloth.png"",""stims/images/pangolin.png"",""stims/images/nyala.png"",""stims/images/manatee.png"",""stims/images/hippopotamus.png""]","nyala","stims/images/nyala.png","unfamiliar","pretest","2","","","","","","","","","","","","","","","","",""
"coact-test","20","69431","0.0-20.0","p093","2","1","","","","","","73892.94133333334","","","[""stims/images/tiger.png"",""stims/images/dolphin.png"",""stims/images/turtle.png"",""stims/images/sloth.png"",""stims/images/pangolin.png"",""stims/images/nyala.png"",""stims/images/manatee.png"",""stims/images/hippopotamus.png""]","nyala","","unfamiliar","pretest","2","stims/audio/wheres_nyala.wav","1","stims/images/dolphin.png","0","","","","","","","","","","","","",""
"coact-test-prompt","21","69564","0.0-21.0","p093","2","1","","","","","","132","","","[""stims/images/nyala.png"",""stims/images/manatee.png"",""stims/images/hippopotamus.png"",""stims/images/sloth.png"",""stims/images/dolphin.png"",""stims/images/tiger.png"",""stims/images/pangolin.png"",""stims/images/turtle.png""]","manatee","stims/images/manatee.png","somewhat unfamiliar","pretest","2","","","","","","","","","","","","","","","","",""
"coact-test","22","76908","0.0-22.0","p093","2","1","","","","","","81366.536","","","[""stims/images/nyala.png"",""stims/images/manatee.png"",""stims/images/hippopotamus.png"",""stims/images/sloth.png"",""stims/images/dolphin.png"",""stims/images/tiger.png"",""stims/images/pangolin.png"",""stims/images/turtle.png""]","manatee","","somewhat unfamiliar","pretest","2","stims/audio/wheres_manatee.wav","0","stims/images/nyala.png","0","","","","","","","","","","","","",""
"html-button-response","23","88007","0.0-23.0","p093","2","1","","","","","","11097","","0","","","","","","","","","","","","","","","","","","","","","","",""
"coact-grid","24","96154","0.0-24.0","p093","2","1","","","","","","6834","","","[""stims/images/butterfly.png"",""stims/images/horse.png"",""stims/images/frog.png"",""stims/images/wolf.png"",""stims/images/duck.png"",""stims/images/cow.png"",""stims/images/squirrel.png"",""stims/images/cat.png""]","","","","","familiar","","","","","[0,4]","[""stims/images/butterfly.png"",""stims/images/duck.png""]","[""butterfly"",""duck""]","[""stims/audio/thats_butterfly.wav"",""stims/audio/thats_duck.wav""]","right","[""stims/images/duck.png"",""stims/images/butterfly.png""]","[""stims/audio/thats_duck.wav"",""stims/audio/thats_butterfly.wav""]","[""duck"",""butterfly""]","active","0","","",""
"coact-grid-choice","25","100305","0.0-25.0","p093","2","1","","","","","","4150.000000000015","","","[""stims/images/butterfly.png"",""stims/images/horse.png"",""stims/images/frog.png"",""stims/images/wolf.png"",""stims/images/duck.png"",""stims/images/cow.png"",""stims/images/squirrel.png"",""stims/images/cat.png""]","","","","","familiar","","","stims/images/butterfly.png","","","[""stims/images/butterfly.png"",""stims/images/duck.png""]","","","","[""stims/images/duck.png"",""stims/images/butterfly.png""]","[""stims/audio/thats_duck.wav"",""stims/audio/thats_butterfly.wav""]","[""duck"",""butterfly""]","passive","0","1","stims/audio/thats_butterfly.wav","[""stims/images/duck.png"",""stims/images/butterfly.png""]"
"coact-grid-choice-audio","26","103315","0.0-26.0","p093","2","1","","","","","","3003","","","[""stims/images/butterfly.png"",""stims/images/horse.png"",""stims/images/frog.png"",""stims/images/wolf.png"",""stims/images/duck.png"",""stims/images/cow.png"",""stims/images/squirrel.png"",""stims/images/cat.png""]","","","","","familiar","","","stims/images/butterfly.png","","","","","","","","","","passive","0","","stims/audio/thats_butterfly.wav","[""stims/images/duck.png"",""stims/images/butterfly.png""]"
"coact-grid","27","106843","0.0-27.0","p093","2","1","","","","","","2217.9999999999854","","","[""stims/images/pangolin.png"",""stims/images/nyala.png"",""stims/images/sloth.png"",""stims/images/turtle.png"",""stims/images/dolphin.png"",""stims/images/hippopotamus.png"",""stims/images/tiger.png"",""stims/images/manatee.png""]","","","","","2","","","","","[0,3]","[""stims/images/pangolin.png"",""stims/images/turtle.png""]","[""pangolin"",""turtle""]","[""stims/audio/its_pangolin.wav"",""stims/audio/its_turtle.wav""]","right","[""stims/images/turtle.png"",""stims/images/pangolin.png""]","[""stims/audio/its_turtle.wav"",""stims/audio/its_pangolin.wav""]","[""turtle"",""pangolin""]","active","0","","",""
"coact-grid-choice","28","109375","0.0-28.0","p093","2","1","","","","","","2531","","","[""stims/images/pangolin.png"",""stims/images/nyala.png"",""stims/images/sloth.png"",""stims/images/turtle.png"",""stims/images/dolphin.png"",""stims/images/hippopotamus.png"",""stims/images/tiger.png"",""stims/images/manatee.png""]","","","","","2","","","stims/images/pangolin.png","","","[""stims/images/pangolin.png"",""stims/images/turtle.png""]","","","","[""stims/images/turtle.png"",""stims/images/pangolin.png""]","[""stims/audio/its_turtle.wav"",""stims/audio/its_pangolin.wav""]","[""turtle"",""pangolin""]","passive","0","1","stims/audio/its_pangolin.wav","[""stims/images/turtle.png"",""stims/images/pangolin.png""]"
"coact-grid-choice-audio","29","112384","0.0-29.0","p093","2","1","","","","","","3003","","","[""stims/images/pangolin.png"",""stims/images/nyala.png"",""stims/images/sloth.png"",""stims/images/turtle.png"",""stims/images/dolphin.png"",""stims/images/hippopotamus.png"",""stims/images/tiger.png"",""stims/images/manatee.png""]","","","","","2","","","stims/images/pangolin.png","","","","","","","","","","passive","0","","stims/audio/its_pangolin.wav","[""stims/images/turtle.png"",""stims/images/pangolin.png""]"
"coact-grid","30","115818","0.0-30.0","p093","2","1","","","","","","2123","","","[""stims/images/dolphin.png"",""stims/images/nyala.png"",""stims/images/tiger.png"",""stims/images/turtle.png"",""stims/images/pangolin.png"",""stims/images/manatee.png"",""stims/images/hippopotamus.png"",""stims/images/sloth.png""]","","","","","2","","","","","[6,5]","[""stims/images/hippopotamus.png"",""stims/images/manatee.png""]","[""hippopotamus"",""manatee""]","[""stims/audio/its_hippopotamus.wav"",""stims/audio/its_manatee.wav""]","left","[""stims/images/hippopotamus.png"",""stims/images/manatee.png""]","[""stims/audio/its_hippopotamus.wav"",""stims/audio/its_manatee.wav""]","[""hippopotamus"",""manatee""]","active","1","","",""
"coact-grid-choice","31","120916","0.0-31.0","p093","2","1","","","","","","5096.999999999985","","","[""stims/images/dolphin.png"",""stims/images/nyala.png"",""stims/images/tiger.png"",""stims/images/turtle.png"",""stims/images/pangolin.png"",""stims/images/manatee.png"",""stims/images/hippopotamus.png"",""stims/images/sloth.png""]","","","","","2","","","stims/images/manatee.png","","","[""stims/images/hippopotamus.png"",""stims/images/manatee.png""]","","","","[""stims/images/hippopotamus.png"",""stims/images/manatee.png""]","[""stims/audio/its_hippopotamus.wav"",""stims/audio/its_manatee.wav""]","[""hippopotamus"",""manatee""]","passive","1","1","stims/audio/its_manatee.wav","[""stims/images/hippopotamus.png"",""stims/images/manatee.png""]"
"coact-grid-choice-audio","32","123925","0.0-32.0","p093","2","1","","","","","","3000","","","[""stims/images/dolphin.png"",""stims/images/nyala.png"",""stims/images/tiger.png"",""stims/images/turtle.png"",""stims/images/pangolin.png"",""stims/images/manatee.png"",""stims/images/hippopotamus.png"",""stims/images/sloth.png""]","","","","","2","","","stims/images/manatee.png","","","","","","","","","","passive","1","","stims/audio/its_manatee.wav","[""stims/images/hippopotamus.png"",""stims/images/manatee.png""]"
"coact-grid","33","127894","0.0-33.0","p093","2","1","","","","","","2662","","","[""stims/images/sloth.png"",""stims/images/manatee.png"",""stims/images/hippopotamus.png"",""stims/images/dolphin.png"",""stims/images/nyala.png"",""stims/images/turtle.png"",""stims/images/tiger.png"",""stims/images/pangolin.png""]","","","","","2","","","","","[1,3]","[""stims/images/manatee.png"",""stims/images/dolphin.png""]","[""manatee"",""dolphin""]","[""stims/audio/thats_manatee.wav"",""stims/audio/thats_dolphin.wav""]","right","[""stims/images/dolphin.png"",""stims/images/manatee.png""]","[""stims/audio/thats_dolphin.wav"",""stims/audio/thats_manatee.wav""]","[""dolphin"",""manatee""]","active","2","","",""
"coact-grid-choice","34","129788","0.0-34.0","p093","2","1","","","","","","1893.999999999971","","","[""stims/images/sloth.png"",""stims/images/manatee.png"",""stims/images/hippopotamus.png"",""stims/images/dolphin.png"",""stims/images/nyala.png"",""stims/images/turtle.png"",""stims/images/tiger.png"",""stims/images/pangolin.png""]","","","","","2","","","stims/images/manatee.png","","","[""stims/images/manatee.png"",""stims/images/dolphin.png""]","","","","[""stims/images/dolphin.png"",""stims/images/manatee.png""]","[""stims/audio/thats_dolphin.wav"",""stims/audio/thats_manatee.wav""]","[""dolphin"",""manatee""]","passive","2","1","stims/audio/thats_manatee.wav","[""stims/images/dolphin.png"",""stims/images/manatee.png""]"
"coact-grid-choice-audio","35","132797","0.0-35.0","p093","2","1","","","","","","3003","","","[""stims/images/sloth.png"",""stims/images/manatee.png"",""stims/images/hippopotamus.png"",""stims/images/dolphin.png"",""stims/images/nyala.png"",""stims/images/turtle.png"",""stims/images/tiger.png"",""stims/images/pangolin.png""]","","","","","2","","","stims/images/manatee.png","","","","","","","","","","passive","2","","stims/audio/thats_manatee.wav","[""stims/images/dolphin.png"",""stims/images/manatee.png""]"
"coact-grid","36","136992","0.0-36.0","p093","2","1","","","","","","2887","","","[""stims/images/turtle.png"",""stims/images/sloth.png"",""stims/images/dolphin.png"",""stims/images/hippopotamus.png"",""stims/images/tiger.png"",""stims/images/nyala.png"",""stims/images/manatee.png"",""stims/images/pangolin.png""]","","","","","2","","","","","[0,3]","[""stims/images/turtle.png"",""stims/images/hippopotamus.png""]","[""turtle"",""hippopotamus""]","[""stims/audio/thats_turtle.wav"",""stims/audio/thats_hippopotamus.wav""]","left","[""stims/images/turtle.png"",""stims/images/hippopotamus.png""]","[""stims/audio/thats_turtle.wav"",""stims/audio/thats_hippopotamus.wav""]","[""turtle"",""hippopotamus""]","active","3","","",""
"coact-grid-choice","37","139176","0.0-37.0","p093","2","1","","","","","","2182","","","[""stims/images/turtle.png"",""stims/images/sloth.png"",""stims/images/dolphin.png"",""stims/images/hippopotamus.png"",""stims/images/tiger.png"",""stims/images/nyala.png"",""stims/images/manatee.png"",""stims/images/pangolin.png""]","","","","","2","","","stims/images/hippopotamus.png","","","[""stims/images/turtle.png"",""stims/images/hippopotamus.png""]","","","","[""stims/images/turtle.png"",""stims/images/hippopotamus.png""]","[""stims/audio/thats_turtle.wav"",""stims/audio/thats_hippopotamus.wav""]","[""turtle"",""hippopotamus""]","passive","3","1","stims/audio/thats_hippopotamus.wav","[""stims/images/turtle.png"",""stims/images/hippopotamus.png""]"
"coact-grid-choice-audio","38","142187","0.0-38.0","p093","2","1","","","","","","3003","","","[""stims/images/turtle.png"",""stims/images/sloth.png"",""stims/images/dolphin.png"",""stims/images/hippopotamus.png"",""stims/images/tiger.png"",""stims/images/nyala.png"",""stims/images/manatee.png"",""stims/images/pangolin.png""]","","","","","2","","","stims/images/hippopotamus.png","","","","","","","","","","passive","3","","stims/audio/thats_hippopotamus.wav","[""stims/images/turtle.png"",""stims/images/hippopotamus.png""]"
"coact-grid","39","145931","0.0-39.0","p093","2","1","","","","","","2436","","","[""stims/images/pangolin.png"",""stims/images/dolphin.png"",""stims/images/turtle.png"",""stims/images/tiger.png"",""stims/images/sloth.png"",""stims/images/hippopotamus.png"",""stims/images/nyala.png"",""stims/images/manatee.png""]","","","","","2","","","","","[3,6]","[""stims/images/tiger.png"",""stims/images/nyala.png""]","[""tiger"",""nyala""]","[""stims/audio/its_tiger.wav"",""stims/audio/its_nyala.wav""]","right","[""stims/images/nyala.png"",""stims/images/tiger.png""]","[""stims/audio/its_nyala.wav"",""stims/audio/its_tiger.wav""]","[""nyala"",""tiger""]","active","4","","",""
"coact-grid-choice","40","147431","0.0-40.0","p093","2","1","","","","","","1500","","","[""stims/images/pangolin.png"",""stims/images/dolphin.png"",""stims/images/turtle.png"",""stims/images/tiger.png"",""stims/images/sloth.png"",""stims/images/hippopotamus.png"",""stims/images/nyala.png"",""stims/images/manatee.png""]","","","","","2","","","stims/images/nyala.png","","","[""stims/images/tiger.png"",""stims/images/nyala.png""]","","","","[""stims/images/nyala.png"",""stims/images/tiger.png""]","[""stims/audio/its_nyala.wav"",""stims/audio/its_tiger.wav""]","[""nyala"",""tiger""]","passive","4","0","stims/audio/its_nyala.wav","[""stims/images/nyala.png"",""stims/images/tiger.png""]"
"coact-grid-choice-audio","41","150440","0.0-41.0","p093","2","1","","","","","","3003","","","[""stims/images/pangolin.png"",""stims/images/dolphin.png"",""stims/images/turtle.png"",""stims/images/tiger.png"",""stims/images/sloth.png"",""stims/images/hippopotamus.png"",""stims/images/nyala.png"",""stims/images/manatee.png""]","","","","","2","","","stims/images/nyala.png","","","","","","","","","","passive","4","","stims/audio/its_nyala.wav","[""stims/images/nyala.png"",""stims/images/tiger.png""]"
"coact-grid","42","153365","0.0-42.0","p093","2","1","","","","","","1619","","","[""stims/images/tiger.png"",""stims/images/hippopotamus.png"",""stims/images/sloth.png"",""stims/images/nyala.png"",""stims/images/pangolin.png"",""stims/images/dolphin.png"",""stims/images/manatee.png"",""stims/images/turtle.png""]","","","","","2","","","","","[0,1]","[""stims/images/tiger.png"",""stims/images/hippopotamus.png""]","[""tiger"",""hippopotamus""]","[""stims/audio/thats_tiger.wav"",""stims/audio/thats_hippopotamus.wav""]","left","[""stims/images/tiger.png"",""stims/images/hippopotamus.png""]","[""stims/audio/thats_tiger.wav"",""stims/audio/thats_hippopotamus.wav""]","[""tiger"",""hippopotamus""]","active","5","","",""
"coact-grid-choice","43","155019","0.0-43.0","p093","2","1","","","","","","1652","","","[""stims/images/tiger.png"",""stims/images/hippopotamus.png"",""stims/images/sloth.png"",""stims/images/nyala.png"",""stims/images/pangolin.png"",""stims/images/dolphin.png"",""stims/images/manatee.png"",""stims/images/turtle.png""]","","","","","2","","","stims/images/tiger.png","","","[""stims/images/tiger.png"",""stims/images/hippopotamus.png""]","","","","[""stims/images/tiger.png"",""stims/images/hippopotamus.png""]","[""stims/audio/thats_tiger.wav"",""stims/audio/thats_hippopotamus.wav""]","[""tiger"",""hippopotamus""]","passive","5","0","stims/audio/thats_tiger.wav","[""stims/images/tiger.png"",""stims/images/hippopotamus.png""]"
"coact-grid-choice-audio","44","158028","0.0-44.0","p093","2","1","","","","","","3000","","","[""stims/images/tiger.png"",""stims/images/hippopotamus.png"",""stims/images/sloth.png"",""stims/images/nyala.png"",""stims/images/pangolin.png"",""stims/images/dolphin.png"",""stims/images/manatee.png"",""stims/images/turtle.png""]","","","","","2","","","stims/images/tiger.png","","","","","","","","","","passive","5","","stims/audio/thats_tiger.wav","[""stims/images/tiger.png"",""stims/images/hippopotamus.png""]"
"html-button-response","45","166778","0.0-45.0","p093","2","1","","","","","","8743","","0","","","","","","","","","","","","","","","","","","","","","","",""
"coact-test-prompt","46","170647","0.0-46.0","p093","2","1","","","","","","3866.999999999971","","","[""stims/images/duck.png"",""stims/images/cow.png"",""stims/images/horse.png"",""stims/images/cat.png"",""stims/images/butterfly.png"",""stims/images/squirrel.png"",""stims/images/wolf.png"",""stims/images/frog.png""]","squirrel","stims/images/squirrel.png","familiar","practice_posttest","familiar","","","","","","","","","","","","","","","","",""
"coact-test","47","177925","0.0-47.0","p093","2","1","","","","","","182286.45066666667","","","[""stims/images/duck.png"",""stims/images/cow.png"",""stims/images/horse.png"",""stims/images/cat.png"",""stims/images/butterfly.png"",""stims/images/squirrel.png"",""stims/images/wolf.png"",""stims/images/frog.png""]","squirrel","","familiar","practice_posttest","familiar","stims/audio/wheres_squirrel.wav","5","stims/images/squirrel.png","1","","","","","","","","","","","","",""
"coact-test-prompt","48","179242","0.0-48.0","p093","2","1","","","","","","1316","","","[""stims/images/cow.png"",""stims/images/duck.png"",""stims/images/frog.png"",""stims/images/cat.png"",""stims/images/butterfly.png"",""stims/images/squirrel.png"",""stims/images/wolf.png"",""stims/images/horse.png""]","butterfly","stims/images/butterfly.png","familiar","practice_posttest","familiar","","","","","","","","","","","","","","","","",""
"coact-test","49","184337","0.0-49.0","p093","2","1","","","","","","188690.856","","","[""stims/images/cow.png"",""stims/images/duck.png"",""stims/images/frog.png"",""stims/images/cat.png"",""stims/images/butterfly.png"",""stims/images/squirrel.png"",""stims/images/wolf.png"",""stims/images/horse.png""]","butterfly","","familiar","practice_posttest","familiar","stims/audio/wheres_butterfly.wav","4","stims/images/butterfly.png","1","","","","","","","","","","","","",""
"coact-test-prompt","50","189108","0.0-50.0","p093","2","1","","","","","","4771","","","[""stims/images/manatee.png"",""stims/images/pangolin.png"",""stims/images/tiger.png"",""stims/images/dolphin.png"",""stims/images/hippopotamus.png"",""stims/images/turtle.png"",""stims/images/sloth.png"",""stims/images/nyala.png""]","sloth","stims/images/sloth.png","somewhat unfamiliar","posttest","2","","","","","","","","","","","","","","","","",""
"coact-test","51","191994","0.0-51.0","p093","2","1","","","","","","196337.98933333336","","","[""stims/images/manatee.png"",""stims/images/pangolin.png"",""stims/images/tiger.png"",""stims/images/dolphin.png"",""stims/images/hippopotamus.png"",""stims/images/turtle.png"",""stims/images/sloth.png"",""stims/images/nyala.png""]","sloth","","somewhat unfamiliar","posttest","2","stims/audio/wheres_sloth.wav","0","stims/images/manatee.png","0","","","","","","","","","","","","",""
"coact-test-prompt","52","193575","0.0-52.0","p093","2","1","","","","","","1580","","","[""stims/images/nyala.png"",""stims/images/tiger.png"",""stims/images/turtle.png"",""stims/images/hippopotamus.png"",""stims/images/dolphin.png"",""stims/images/pangolin.png"",""stims/images/manatee.png"",""stims/images/sloth.png""]","turtle","stims/images/turtle.png","familiar","posttest","2","","","","","","","","","","","","","","","","",""
"coact-test","53","203434","0.0-53.0","p093","2","1","","","","","","207774.5226666667","","","[""stims/images/nyala.png"",""stims/images/tiger.png"",""stims/images/turtle.png"",""stims/images/hippopotamus.png"",""stims/images/dolphin.png"",""stims/images/pangolin.png"",""stims/images/manatee.png"",""stims/images/sloth.png""]","turtle","","familiar","posttest","2","stims/audio/find_turtle.wav","2","stims/images/turtle.png","1","","","","","","","","","","","","",""
"coact-test-prompt","54","211177","0.0-54.0","p093","2","1","","","","","","7742","","","[""stims/images/nyala.png"",""stims/images/pangolin.png"",""stims/images/hippopotamus.png"",""stims/images/tiger.png"",""stims/images/manatee.png"",""stims/images/turtle.png"",""stims/images/dolphin.png"",""stims/images/sloth.png""]","manatee","stims/images/manatee.png","somewhat unfamiliar","posttest","2","","","","","","","","","","","","","","","","",""
"coact-test","55","213014","0.0-55.0","p093","2","1","","","","","","217337.91733333335","","","[""stims/images/nyala.png"",""stims/images/pangolin.png"",""stims/images/hippopotamus.png"",""stims/images/tiger.png"",""stims/images/manatee.png"",""stims/images/turtle.png"",""stims/images/dolphin.png"",""stims/images/sloth.png""]","manatee","","somewhat unfamiliar","posttest","2","stims/audio/find_manatee.wav","5","stims/images/turtle.png","0","","","","","","","","","","","","",""
"coact-test-prompt","56","218289","0.0-56.0","p093","2","1","","","","","","5274","","","[""stims/images/tiger.png"",""stims/images/hippopotamus.png"",""stims/images/pangolin.png"",""stims/images/sloth.png"",""stims/images/turtle.png"",""stims/images/dolphin.png"",""stims/images/manatee.png"",""stims/images/nyala.png""]","dolphin","stims/images/dolphin.png","somewhat familiar","posttest","2","","","","","","","","","","","","","","","","",""
"coact-test","57","220350","0.0-57.0","p093","2","1","","","","","","224665.808","","","[""stims/images/tiger.png"",""stims/images/hippopotamus.png"",""stims/images/pangolin.png"",""stims/images/sloth.png"",""stims/images/turtle.png"",""stims/images/dolphin.png"",""stims/images/manatee.png"",""stims/images/nyala.png""]","dolphin","","somewhat familiar","posttest","2","stims/audio/wheres_dolphin.wav","5","stims/images/dolphin.png","1","","","","","","","","","","","","",""
"coact-test-prompt","58","224900","0.0-58.0","p093","2","1","","","","","","4549","","","[""stims/images/nyala.png"",""stims/images/tiger.png"",""stims/images/hippopotamus.png"",""stims/images/manatee.png"",""stims/images/sloth.png"",""stims/images/turtle.png"",""stims/images/pangolin.png"",""stims/images/dolphin.png""]","pangolin","stims/images/pangolin.png","unfamiliar","posttest","2","","","","","","","","","","","","","","","","",""
"coact-test","59","234302","0.0-59.0","p093","2","1","","","","","","238612.19733333337","","","[""stims/images/nyala.png"",""stims/images/tiger.png"",""stims/images/hippopotamus.png"",""stims/images/manatee.png"",""stims/images/sloth.png"",""stims/images/turtle.png"",""stims/images/pangolin.png"",""stims/images/dolphin.png""]","pangolin","","unfamiliar","posttest","2","stims/audio/wheres_pangolin.wav","4","stims/images/sloth.png","0","","","","","","","","","","","","",""
"coact-test-prompt","60","243266","0.0-60.0","p093","2","1","","","","","","8963","","","[""stims/images/turtle.png"",""stims/images/dolphin.png"",""stims/images/pangolin.png"",""stims/images/sloth.png"",""stims/images/nyala.png"",""stims/images/manatee.png"",""stims/images/hippopotamus.png"",""stims/images/tiger.png""]","tiger","stims/images/tiger.png","familiar","posttest","2","","","","","","","","","","","","","","","","",""
"coact-test","61","247293","0.0-61.0","p093","2","1","","","","","","251585.82933333333","","","[""stims/images/turtle.png"",""stims/images/dolphin.png"",""stims/images/pangolin.png"",""stims/images/sloth.png"",""stims/images/nyala.png"",""stims/images/manatee.png"",""stims/images/hippopotamus.png"",""stims/images/tiger.png""]","tiger","","familiar","posttest","2","stims/audio/find_tiger.wav","3","stims/images/sloth.png","0","","","","","","","","","","","","",""
"coact-test-prompt","62","252326","0.0-62.0","p093","2","1","","","","","","5032.000000000029","","","[""stims/images/hippopotamus.png"",""stims/images/pangolin.png"",""stims/images/sloth.png"",""stims/images/turtle.png"",""stims/images/manatee.png"",""stims/images/tiger.png"",""stims/images/dolphin.png"",""stims/images/nyala.png""]","hippopotamus","stims/images/hippopotamus.png","somewhat familiar","posttest","2","","","","","","","","","","","","","","","","",""
"coact-test","63","254069","0.0-63.0","p093","2","1","","","","","","258353.77066666668","","","[""stims/images/hippopotamus.png"",""stims/images/pangolin.png"",""stims/images/sloth.png"",""stims/images/turtle.png"",""stims/images/manatee.png"",""stims/images/tiger.png"",""stims/images/dolphin.png"",""stims/images/nyala.png""]","hippopotamus","","somewhat familiar","posttest","2","stims/audio/wheres_hippopotamus.wav","5","stims/images/tiger.png","0","","","","","","","","","","","","",""
"coact-test-prompt","64","259339","0.0-64.0","p093","2","1","","","","","","5268.000000000029","","","[""stims/images/tiger.png"",""stims/images/pangolin.png"",""stims/images/dolphin.png"",""stims/images/sloth.png"",""stims/images/manatee.png"",""stims/images/turtle.png"",""stims/images/hippopotamus.png"",""stims/images/nyala.png""]","nyala","stims/images/nyala.png","unfamiliar","posttest","2","","","","","","","","","","","","","","","","",""
"coact-test","65","263519","0.0-65.0","p093","2","1","","","","","","267797.7573333333","","","[""stims/images/tiger.png"",""stims/images/pangolin.png"",""stims/images/dolphin.png"",""stims/images/sloth.png"",""stims/images/manatee.png"",""stims/images/turtle.png"",""stims/images/hippopotamus.png"",""stims/images/nyala.png""]","nyala","","unfamiliar","posttest","2","stims/audio/find_nyala.wav","3","stims/images/sloth.png","0","","","","","","","","","","","","",""
