"trial_type","trial_index","time_elapsed","internal_node_id","subject_id","round_name","round_index","success","timeout","failed_images","failed_audio","failed_video","rt","stimulus","response","images","target","target_image","target_type","round_type","set","test_audio","choice","chosen_image","correct","choices","chosen_images","chosen_items","chosen_audio_items","first_choice_location","chosen_images_in_order","chosen_audio_in_order","chosen_items_in_order","condition","sample_num","chosen_index","chosen_audio","central_images"
"pavlovia","0","3","0.0-0.0","p045","2","1","","","","","","","","","","","","","","","","","","","","","","","","","","","","","","",""
"preload","1","278","0.0-1.0","p045","2","1","true","false","[]","[]","[]","","","","","","","","","","","","","","","","","","","","","","","","","",""
"html-button-response","2","22805","0.0-2.0","p045","2","1","","","","","","22528","","0","","","","","","","","","","","","","","","","","","","","","","",""
"coact-test-prompt","3","40585","0.0-3.0","p045","2","1","","","","","","17779","","","[""stims/images/wolf.png"",""stims/images/cat.png"",""stims/images/horse.png"",""stims/images/duck.png"",""stims/images/butterfly.png"",""stims/images/frog.png"",""stims/images/squirrel.png"",""stims/images/cow.png""]","squirrel","stims/images/squirrel.png","familiar","practice_pretest","familiar","","","","","","","","","","","","","","","","",""
"coact-test","4","46635","0.0-4.0","p045","2","1","","","","","","53419.608","","","[""stims/images/wolf.png"",""stims/images/cat.png"",""stims/images/horse.png"",""stims/images/duck.png"",""stims/images/butterfly.png"",""stims/images/frog.png"",""stims/images/squirrel.png"",""stims/images/cow.png""]","squirrel","","familiar","practice_pretest","familiar","stims/audio/wheres_squirrel.wav","6","stims/images/squirrel.png","1","","","","","","","","","","","","",""
"coact-test-prompt","5","48194","0.0-5.0","p045","2","1","","","","","","1556","","","[""stims/images/wolf.png"",""stims/images/cat.png"",""stims/images/duck.png"",""stims/images/cow.png"",""stims/images/butterfly.png"",""stims/images/horse.png"",""stims/images/squirrel.png"",""stims/images/frog.png""]","butterfly","stims/images/butterfly.png","familiar","practice_pretest","familiar","","","","","","","","","","","","","","","","",""
"coact-test","6","51656","0.0-6.0","p045","2","1","","","","","","58433.005333333334","","","[""stims/images/wolf.png"",""stims/images/cat.png"",""stims/images/duck.png"",""stims/images/cow.png"",""stims/images/butterfly.png"",""stims/images/horse.png"",""stims/images/squirrel.png"",""stims/images/frog.png""]","butterfly","","familiar","practice_pretest","familiar","stims/audio/find_butterfly.wav","4","stims/images/butterfly.png","1","","","","","","","","","","","","",""
"coact-test-prompt","7","64963","0.0-7.0","p045","2","1","","","","","","13307.999999999993","","","[""stims/images/pangolin.png"",""stims/images/hippopotamus.png"",""stims/images/nyala.png"",""stims/images/tiger.png"",""stims/images/sloth.png"",""stims/images/dolphin.png"",""stims/images/turtle.png"",""stims/images/manatee.png""]","manatee","stims/images/manatee.png","somewhat unfamiliar","pretest","2","","","","","","","","","","","","","","","","",""
"coact-test","8","75562","0.0-8.0","p045","2","1","","","","","","82324.23466666667","","","[""stims/images/pangolin.png"",""stims/images/hippopotamus.png"",""stims/images/nyala.png"",""stims/images/tiger.png"",""stims/images/sloth.png"",""stims/images/dolphin.png"",""stims/images/turtle.png"",""stims/images/manatee.png""]","manatee","","somewhat unfamiliar","pretest","2","stims/audio/find_manatee.wav","0","stims/images/pangolin.png","0","","","","","","","","","","","","",""
"coact-test-prompt","9","83649","0.0-9.0","p045","2","1","","","","","","8087.000000000015","","","[""stims/images/tiger.png"",""stims/images/manatee.png"",""stims/images/turtle.png"",""stims/images/sloth.png"",""stims/images/hippopotamus.png"",""stims/images/nyala.png"",""stims/images/pangolin.png"",""stims/images/dolphin.png""]","hippopotamus","stims/images/hippopotamus.png","somewhat familiar","pretest","2","","","","","","","","","","","","","","","","",""
"coact-test","10","87569","0.0-10.0","p045","2","1","","","","","","94312.54933333333","","","[""stims/images/tiger.png"",""stims/images/manatee.png"",""stims/images/turtle.png"",""stims/images/sloth.png"",""stims/images/hippopotamus.png"",""stims/images/nyala.png"",""stims/images/pangolin.png"",""stims/images/dolphin.png""]","hippopotamus","","somewhat familiar","pretest","2","stims/audio/wheres_hippopotamus.wav","4","stims/images/hippopotamus.png","1","","","","","","","","","","","","",""
"coact-test-prompt","11","120023","0.0-11.0","p045","2","1","","","","","","32454.000000000015","","","[""stims/images/tiger.png"",""stims/images/sloth.png"",""stims/images/turtle.png"",""stims/images/nyala.png"",""stims/images/hippopotamus.png"",""stims/images/pangolin.png"",""stims/images/manatee.png"",""stims/images/dolphin.png""]","pangolin","stims/images/pangolin.png","unfamiliar","pretest","2","","","","","","","","","","","","","","","","",""
"coact-test","12","129778","0.0-12.0","p045","2","1","","","","","","136486.176","","","[""stims/images/tiger.png"",""stims/images/sloth.png"",""stims/images/turtle.png"",""stims/images/nyala.png"",""stims/images/hippopotamus.png"",""stims/images/pangolin.png"",""stims/images/manatee.png"",""stims/images/dolphin.png""]","pangolin","","unfamiliar","pretest","2","stims/audio/wheres_pangolin.wav","1","stims/images/sloth.png","0","","","","","","","","","","","","",""
"coact-test-prompt","13","131147","0.0-13.0","p045","2","1","","","","","","1368","","","[""stims/images/sloth.png"",""stims/images/manatee.png"",""stims/images/hippopotamus.png"",""stims/images/pangolin.png"",""stims/images/turtle.png"",""stims/images/nyala.png"",""stims/images/tiger.png"",""stims/images/dolphin.png""]","nyala","stims/images/nyala.png","unfamiliar","pretest","2","","","","","","","","","","","","","","","","",""
"coact-test","14","135464","0.0-14.0","p045","2","1","","","","","","142162.05333333334","","","[""stims/images/sloth.png"",""stims/images/manatee.png"",""stims/images/hippopotamus.png"",""stims/images/pangolin.png"",""stims/images/turtle.png"",""stims/images/nyala.png"",""stims/images/tiger.png"",""stims/images/dolphin.png""]","nyala","","unfamiliar","pretest","2","stims/audio/wheres_nyala.wav","5","stims/images/nyala.png","1","","","","","","","","","","","","",""
"coact-test-prompt","15","137015","0.0-15.0","p045","2","1","","","","","","1549","","","[""stims/images/tiger.png"",""stims/images/dolphin.png"",""stims/images/pangolin.png"",""stims/images/turtle.png"",""stims/images/manatee.png"",""stims/images/sloth.png"",""stims/images/hippopotamus.png"",""stims/images/nyala.png""]","sloth","stims/images/sloth.png","somewhat unfamiliar","pretest","2","","","","","","","","","","","","","","","","",""
"coact-test","16","147274","0.0-16.0","p045","2","1","","","","","","154046.184","","","[""stims/images/tiger.png"",""stims/images/dolphin.png"",""stims/images/pangolin.png"",""stims/images/turtle.png"",""stims/images/manatee.png"",""stims/images/sloth.png"",""stims/images/hippopotamus.png"",""stims/images/nyala.png""]","sloth","","somewhat unfamiliar","pretest","2","stims/audio/wheres_sloth.wav","4","stims/images/manatee.png","0","","","","","","","","","","","","",""
"coact-test-prompt","17","148717","0.0-17.0","p045","2","1","","","","","","1442","","","[""stims/images/dolphin.png"",""stims/images/nyala.png"",""stims/images/hippopotamus.png"",""stims/images/tiger.png"",""stims/images/manatee.png"",""stims/images/pangolin.png"",""stims/images/turtle.png"",""stims/images/sloth.png""]","turtle","stims/images/turtle.png","familiar","pretest","2","","","","","","","","","","","","","","","","",""
"coact-test","18","151628","0.0-18.0","p045","2","1","","","","","","158388.40266666666","","","[""stims/images/dolphin.png"",""stims/images/nyala.png"",""stims/images/hippopotamus.png"",""stims/images/tiger.png"",""stims/images/manatee.png"",""stims/images/pangolin.png"",""stims/images/turtle.png"",""stims/images/sloth.png""]","turtle","","familiar","pretest","2","stims/audio/find_turtle.wav","6","stims/images/turtle.png","1","","","","","","","","","","","","",""
"coact-test-prompt","19","154745","0.0-19.0","p045","2","1","","","","","","3116","","","[""stims/images/dolphin.png"",""stims/images/tiger.png"",""stims/images/sloth.png"",""stims/images/nyala.png"",""stims/images/manatee.png"",""stims/images/turtle.png"",""stims/images/hippopotamus.png"",""stims/images/pangolin.png""]","tiger","stims/images/tiger.png","familiar","pretest","2","","","","","","","","","","","","","","","","",""
"coact-test","20","160573","0.0-20.0","p045","2","1","","","","","","167329.37333333332","","","[""stims/images/dolphin.png"",""stims/images/tiger.png"",""stims/images/sloth.png"",""stims/images/nyala.png"",""stims/images/manatee.png"",""stims/images/turtle.png"",""stims/images/hippopotamus.png"",""stims/images/pangolin.png""]","tiger","","familiar","pretest","2","stims/audio/find_tiger.wav","1","stims/images/tiger.png","1","","","","","","","","","","","","",""
"coact-test-prompt","21","161815","0.0-21.0","p045","2","1","","","","","","1241","","","[""stims/images/tiger.png"",""stims/images/nyala.png"",""stims/images/sloth.png"",""stims/images/hippopotamus.png"",""stims/images/pangolin.png"",""stims/images/dolphin.png"",""stims/images/manatee.png"",""stims/images/turtle.png""]","dolphin","stims/images/dolphin.png","somewhat familiar","pretest","2","","","","","","","","","","","","","","","","",""
"coact-test","22","166511","0.0-22.0","p045","2","1","","","","","","173259.304","","","[""stims/images/tiger.png"",""stims/images/nyala.png"",""stims/images/sloth.png"",""stims/images/hippopotamus.png"",""stims/images/pangolin.png"",""stims/images/dolphin.png"",""stims/images/manatee.png"",""stims/images/turtle.png""]","dolphin","","somewhat familiar","pretest","2","stims/audio/find_dolphin.wav","5","stims/images/dolphin.png","1","","","","","","","","","","","","",""
"html-button-response","23","184149","0.0-23.0","p045","2","1","","","","","","17632.00000000003","","0","","","","","","","","","","","","","","","","","","","","","","",""
"coact-grid","24","194101","0.0-24.0","p045","2","1","","","","","","8640","","","[""stims/images/duck.png"",""stims/images/wolf.png"",""stims/images/squirrel.png"",""stims/images/cat.png"",""stims/images/horse.png"",""stims/images/butterfly.png"",""stims/images/cow.png"",""stims/images/frog.png""]","","","","","familiar","","","","","[1,4]","[""stims/images/wolf.png"",""stims/images/horse.png""]","[""wolf"",""horse""]","[""stims/audio/its_wolf.wav"",""stims/audio/its_horse.wav""]","right","[""stims/images/horse.png"",""stims/images/wolf.png""]","[""stims/audio/its_horse.wav"",""stims/audio/its_wolf.wav""]","[""horse"",""wolf""]","active","0","","",""
"coact-grid-choice","25","196578","0.0-25.0","p045","2","1","","","","","","2475","","","[""stims/images/duck.png"",""stims/images/wolf.png"",""stims/images/squirrel.png"",""stims/images/cat.png"",""stims/images/horse.png"",""stims/images/butterfly.png"",""stims/images/cow.png"",""stims/images/frog.png""]","","","","","familiar","","","stims/images/horse.png","","","[""stims/images/wolf.png"",""stims/images/horse.png""]","","","","[""stims/images/horse.png"",""stims/images/wolf.png""]","[""stims/audio/its_horse.wav"",""stims/audio/its_wolf.wav""]","[""horse"",""wolf""]","passive","0","0","stims/audio/its_horse.wav","[""stims/images/horse.png"",""stims/images/wolf.png""]"
"coact-grid-choice-audio","26","199585","0.0-26.0","p045","2","1","","","","","","3003","","","[""stims/images/duck.png"",""stims/images/wolf.png"",""stims/images/squirrel.png"",""stims/images/cat.png"",""stims/images/horse.png"",""stims/images/butterfly.png"",""stims/images/cow.png"",""stims/images/frog.png""]","","","","","familiar","","","stims/images/horse.png","","","","","","","","","","passive","0","","stims/audio/its_horse.wav","[""stims/images/horse.png"",""stims/images/wolf.png""]"
"coact-grid","27","204637","0.0-27.0","p045","2","1","","","","","","3745","","","[""stims/images/manatee.png"",""stims/images/dolphin.png"",""stims/images/tiger.png"",""stims/images/hippopotamus.png"",""stims/images/pangolin.png"",""stims/images/sloth.png"",""stims/images/nyala.png"",""stims/images/turtle.png""]","","","","","2","","","","","[5,7]","[""stims/images/sloth.png"",""stims/images/turtle.png""]","[""sloth"",""turtle""]","[""stims/audio/its_sloth.wav"",""stims/audio/its_turtle.wav""]","right","[""stims/images/turtle.png"",""stims/images/sloth.png""]","[""stims/audio/its_turtle.wav"",""stims/audio/its_sloth.wav""]","[""turtle"",""sloth""]","active","0","","",""
"coact-grid-choice","28","206316","0.0-28.0","p045","2","1","","","","","","1678.000000000029","","","[""stims/images/manatee.png"",""stims/images/dolphin.png"",""stims/images/tiger.png"",""stims/images/hippopotamus.png"",""stims/images/pangolin.png"",""stims/images/sloth.png"",""stims/images/nyala.png"",""stims/images/turtle.png""]","","","","","2","","","stims/images/turtle.png","","","[""stims/images/sloth.png"",""stims/images/turtle.png""]","","","","[""stims/images/turtle.png"",""stims/images/sloth.png""]","[""stims/audio/its_turtle.wav"",""stims/audio/its_sloth.wav""]","[""turtle"",""sloth""]","passive","0","0","stims/audio/its_turtle.wav","[""stims/images/turtle.png"",""stims/images/sloth.png""]"
"coact-grid-choice-audio","29","209320","0.0-29.0","p045","2","1","","","","","","3003","","","[""stims/images/manatee.png"",""stims/images/dolphin.png"",""stims/images/tiger.png"",""stims/images/hippopotamus.png"",""stims/images/pangolin.png"",""stims/images/sloth.png"",""stims/images/nyala.png"",""stims/images/turtle.png""]","","","","","2","","","stims/images/turtle.png","","","","","","","","","","passive","0","","stims/audio/its_turtle.wav","[""stims/images/turtle.png"",""stims/images/sloth.png""]"
"coact-grid","30","214167","0.0-30.0","p045","2","1","","","","","","3539.999999999971","","","[""stims/images/dolphin.png"",""stims/images/nyala.png"",""stims/images/turtle.png"",""stims/images/hippopotamus.png"",""stims/images/tiger.png"",""stims/images/pangolin.png"",""stims/images/sloth.png"",""stims/images/manatee.png""]","","","","","2","","","","","[5,1]","[""stims/images/pangolin.png"",""stims/images/nyala.png""]","[""pangolin"",""nyala""]","[""stims/audio/thats_pangolin.wav"",""stims/audio/thats_nyala.wav""]","right","[""stims/images/nyala.png"",""stims/images/pangolin.png""]","[""stims/audio/thats_nyala.wav"",""stims/audio/thats_pangolin.wav""]","[""nyala"",""pangolin""]","active","1","","",""
"coact-grid-choice","31","220592","0.0-31.0","p045","2","1","","","","","","6423","","","[""stims/images/dolphin.png"",""stims/images/nyala.png"",""stims/images/turtle.png"",""stims/images/hippopotamus.png"",""stims/images/tiger.png"",""stims/images/pangolin.png"",""stims/images/sloth.png"",""stims/images/manatee.png""]","","","","","2","","","stims/images/pangolin.png","","","[""stims/images/pangolin.png"",""stims/images/nyala.png""]","","","","[""stims/images/nyala.png"",""stims/images/pangolin.png""]","[""stims/audio/thats_nyala.wav"",""stims/audio/thats_pangolin.wav""]","[""nyala"",""pangolin""]","passive","1","1","stims/audio/thats_pangolin.wav","[""stims/images/nyala.png"",""stims/images/pangolin.png""]"
"coact-grid-choice-audio","32","223596","0.0-32.0","p045","2","1","","","","","","3000","","","[""stims/images/dolphin.png"",""stims/images/nyala.png"",""stims/images/turtle.png"",""stims/images/hippopotamus.png"",""stims/images/tiger.png"",""stims/images/pangolin.png"",""stims/images/sloth.png"",""stims/images/manatee.png""]","","","","","2","","","stims/images/pangolin.png","","","","","","","","","","passive","1","","stims/audio/thats_pangolin.wav","[""stims/images/nyala.png"",""stims/images/pangolin.png""]"
"coact-grid","33","230093","0.0-33.0","p045","2","1","","","","","","5190","","","[""stims/images/sloth.png"",""stims/images/tiger.png"",""stims/images/nyala.png"",""stims/images/hippopotamus.png"",""stims/images/pangolin.png"",""stims/images/turtle.png"",""stims/images/dolphin.png"",""stims/images/manatee.png""]","","","","","2","","","","","[6,7]","[""stims/images/dolphin.png"",""stims/images/manatee.png""]","[""dolphin"",""manatee""]","[""stims/audio/its_dolphin.wav"",""stims/audio/its_manatee.wav""]","right","[""stims/images/manatee.png"",""stims/images/dolphin.png""]","[""stims/audio/its_manatee.wav"",""stims/audio/its_dolphin.wav""]","[""manatee"",""dolphin""]","active","2","","",""
"coact-grid-choice","34","231447","0.0-34.0","p045","2","1","","","","","","1353","","","[""stims/images/sloth.png"",""stims/images/tiger.png"",""stims/images/nyala.png"",""stims/images/hippopotamus.png"",""stims/images/pangolin.png"",""stims/images/turtle.png"",""stims/images/dolphin.png"",""stims/images/manatee.png""]","","","","","2","","","stims/images/manatee.png","","","[""stims/images/dolphin.png"",""stims/images/manatee.png""]","","","","[""stims/images/manatee.png"",""stims/images/dolphin.png""]","[""stims/audio/its_manatee.wav"",""stims/audio/its_dolphin.wav""]","[""manatee"",""dolphin""]","passive","2","0","stims/audio/its_manatee.wav","[""stims/images/manatee.png"",""stims/images/dolphin.png""]"
"coact-grid-choice-audio","35","234452","0.0-35.0","p045","2","1","","","","","","3003","","","[""stims/images/sloth.png"",""stims/images/tiger.png"",""stims/images/nyala.png"",""stims/images/hippopotamus.png"",""stims/images/pangolin.png"",""stims/images/turtle.png"",""stims/images/dolphin.png"",""stims/images/manatee.png""]","","","","","2","","","stims/images/manatee.png","","","","","","","","","","passive","2","","stims/audio/its_manatee.wav","[""stims/images/manatee.png"",""stims/images/dolphin.png""]"
"coact-grid","36","238900","0.0-36.0","p045","2","1","","","","","","3141","","","[""stims/images/manatee.png"",""stims/images/pangolin.png"",""stims/images/hippopotamus.png"",""stims/images/sloth.png"",""stims/images/dolphin.png"",""stims/images/turtle.png"",""stims/images/tiger.png"",""stims/images/nyala.png""]","","","","","2","","","","","[6,2]","[""stims/images/tiger.png"",""stims/images/hippopotamus.png""]","[""tiger"",""hippopotamus""]","[""stims/audio/its_tiger.wav"",""stims/audio/its_hippopotamus.wav""]","left","[""stims/images/tiger.png"",""stims/images/hippopotamus.png""]","[""stims/audio/its_tiger.wav"",""stims/audio/its_hippopotamus.wav""]","[""tiger"",""hippopotamus""]","active","3","","",""
"coact-grid-choice","37","240303","0.0-37.0","p045","2","1","","","","","","1402","","","[""stims/images/manatee.png"",""stims/images/pangolin.png"",""stims/images/hippopotamus.png"",""stims/images/sloth.png"",""stims/images/dolphin.png"",""stims/images/turtle.png"",""stims/images/tiger.png"",""stims/images/nyala.png""]","","","","","2","","","stims/images/tiger.png","","","[""stims/images/tiger.png"",""stims/images/hippopotamus.png""]","","","","[""stims/images/tiger.png"",""stims/images/hippopotamus.png""]","[""stims/audio/its_tiger.wav"",""stims/audio/its_hippopotamus.wav""]","[""tiger"",""hippopotamus""]","passive","3","0","stims/audio/its_tiger.wav","[""stims/images/tiger.png"",""stims/images/hippopotamus.png""]"
"coact-grid-choice-audio","38","243308","0.0-38.0","p045","2","1","","","","","","3000","","","[""stims/images/manatee.png"",""stims/images/pangolin.png"",""stims/images/hippopotamus.png"",""stims/images/sloth.png"",""stims/images/dolphin.png"",""stims/images/turtle.png"",""stims/images/tiger.png"",""stims/images/nyala.png""]","","","","","2","","","stims/images/tiger.png","","","","","","","","","","passive","3","","stims/audio/its_tiger.wav","[""stims/images/tiger.png"",""stims/images/hippopotamus.png""]"
"coact-grid","39","248178","0.0-39.0","p045","2","1","","","","","","3563.000000000029","","","[""stims/images/dolphin.png"",""stims/images/manatee.png"",""stims/images/nyala.png"",""stims/images/tiger.png"",""stims/images/hippopotamus.png"",""stims/images/turtle.png"",""stims/images/sloth.png"",""stims/images/pangolin.png""]","","","","","2","","","","","[5,4]","[""stims/images/turtle.png"",""stims/images/hippopotamus.png""]","[""turtle"",""hippopotamus""]","[""stims/audio/thats_turtle.wav"",""stims/audio/thats_hippopotamus.wav""]","left","[""stims/images/turtle.png"",""stims/images/hippopotamus.png""]","[""stims/audio/thats_turtle.wav"",""stims/audio/thats_hippopotamus.wav""]","[""turtle"",""hippopotamus""]","active","4","","",""
"coact-grid-choice","40","262831","0.0-40.0","p045","2","1","","","","","","14653.99999999997","","","[""stims/images/dolphin.png"",""stims/images/manatee.png"",""stims/images/nyala.png"",""stims/images/tiger.png"",""stims/images/hippopotamus.png"",""stims/images/turtle.png"",""stims/images/sloth.png"",""stims/images/pangolin.png""]","","","","","2","","","stims/images/turtle.png","","","[""stims/images/turtle.png"",""stims/images/hippopotamus.png""]","","","","[""stims/images/turtle.png"",""stims/images/hippopotamus.png""]","[""stims/audio/thats_turtle.wav"",""stims/audio/thats_hippopotamus.wav""]","[""turtle"",""hippopotamus""]","passive","4","0","stims/audio/thats_turtle.wav","[""stims/images/turtle.png"",""stims/images/hippopotamus.png""]"
"coact-grid-choice-audio","41","265838","0.0-41.0","p045","2","1","","","","","","3003","","","[""stims/images/dolphin.png"",""stims/images/manatee.png"",""stims/images/nyala.png"",""stims/images/tiger.png"",""stims/images/hippopotamus.png"",""stims/images/turtle.png"",""stims/images/sloth.png"",""stims/images/pangolin.png""]","","","","","2","","","stims/images/turtle.png","","","","","","","","","","passive","4","","stims/audio/thats_turtle.wav","[""stims/images/turtle.png"",""stims/images/hippopotamus.png""]"
"coact-grid","42","276502","0.0-42.0","p045","2","1","","","","","","9358","","","[""stims/images/manatee.png"",""stims/images/turtle.png"",""stims/images/dolphin.png"",""stims/images/tiger.png"",""stims/images/pangolin.png"",""stims/images/hippopotamus.png"",""stims/images/nyala.png"",""stims/images/sloth.png""]","","","","","2","","","","","[7,1]","[""stims/images/sloth.png"",""stims/images/turtle.png""]","[""sloth"",""turtle""]","[""stims/audio/thats_sloth.wav"",""stims/audio/thats_turtle.wav""]","left","[""stims/images/sloth.png"",""stims/images/turtle.png""]","[""stims/audio/thats_sloth.wav"",""stims/audio/thats_turtle.wav""]","[""sloth"",""turtle""]","active","5","","",""
"coact-grid-choice","43","278174","0.0-43.0","p045","2","1","","","","","","1670","","","[""stims/images/manatee.png"",""stims/images/turtle.png"",""stims/images/dolphin.png"",""stims/images/tiger.png"",""stims/images/pangolin.png"",""stims/images/hippopotamus.png"",""stims/images/nyala.png"",""stims/images/sloth.png""]","","","","","2","","","stims/images/sloth.png","","","[""stims/images/sloth.png"",""stims/images/turtle.png""]","","","","[""stims/images/sloth.png"",""stims/images/turtle.png""]","[""stims/audio/thats_sloth.wav"",""stims/audio/thats_turtle.wav""]","[""sloth"",""turtle""]","passive","5","0","stims/audio/thats_sloth.wav","[""stims/images/sloth.png"",""stims/images/turtle.png""]"
"coact-grid-choice-audio","44","281184","0.0-44.0","p045","2","1","","","","","","3000","","","[""stims/images/manatee.png"",""stims/images/turtle.png"",""stims/images/dolphin.png"",""stims/images/tiger.png"",""stims/images/pangolin.png"",""stims/images/hippopotamus.png"",""stims/images/nyala.png"",""stims/images/sloth.png""]","","","","","2","","","stims/images/sloth.png","","","","","","","","","","passive","5","","stims/audio/thats_sloth.wav","[""stims/images/sloth.png"",""stims/images/turtle.png""]"
"html-button-response","45","291264","0.0-45.0","p045","2","1","","","","","","10078","","0","","","","","","","","","","","","","","","","","","","","","","",""
"coact-test-prompt","46","295992","0.0-46.0","p045","2","1","","","","","","4727.000000000058","","","[""stims/images/frog.png"",""stims/images/squirrel.png"",""stims/images/horse.png"",""stims/images/duck.png"",""stims/images/cat.png"",""stims/images/cow.png"",""stims/images/butterfly.png"",""stims/images/wolf.png""]","squirrel","stims/images/squirrel.png","familiar","practice_posttest","familiar","","","","","","","","","","","","","","","","",""
"coact-test","47","305199","0.0-47.0","p045","2","1","","","","","","311822.12533333333","","","[""stims/images/frog.png"",""stims/images/squirrel.png"",""stims/images/horse.png"",""stims/images/duck.png"",""stims/images/cat.png"",""stims/images/cow.png"",""stims/images/butterfly.png"",""stims/images/wolf.png""]","squirrel","","familiar","practice_posttest","familiar","stims/audio/find_squirrel.wav","1","stims/images/squirrel.png","1","","","","","","","","","","","","",""
"coact-test-prompt","48","306924","0.0-48.0","p045","2","1","","","","","","1723","","","[""stims/images/horse.png"",""stims/images/squirrel.png"",""stims/images/cat.png"",""stims/images/butterfly.png"",""stims/images/duck.png"",""stims/images/frog.png"",""stims/images/cow.png"",""stims/images/wolf.png""]","butterfly","stims/images/butterfly.png","familiar","practice_posttest","familiar","","","","","","","","","","","","","","","","",""
"coact-test","49","313531","0.0-49.0","p045","2","1","","","","","","320144.1946666667","","","[""stims/images/horse.png"",""stims/images/squirrel.png"",""stims/images/cat.png"",""stims/images/butterfly.png"",""stims/images/duck.png"",""stims/images/frog.png"",""stims/images/cow.png"",""stims/images/wolf.png""]","butterfly","","familiar","practice_posttest","familiar","stims/audio/wheres_butterfly.wav","3","stims/images/butterfly.png","1","","","","","","","","","","","","",""
"coact-test-prompt","50","319839","0.0-50.0","p045","2","1","","","","","","6306.999999999942","","","[""stims/images/hippopotamus.png"",""stims/images/manatee.png"",""stims/images/dolphin.png"",""stims/images/pangolin.png"",""stims/images/sloth.png"",""stims/images/nyala.png"",""stims/images/turtle.png"",""stims/images/tiger.png""]","nyala","stims/images/nyala.png","unfamiliar","posttest","2","","","","","","","","","","","","","","","","",""
"coact-test","51","330647","0.0-51.0","p045","2","1","","","","","","337247.28","","","[""stims/images/hippopotamus.png"",""stims/images/manatee.png"",""stims/images/dolphin.png"",""stims/images/pangolin.png"",""stims/images/sloth.png"",""stims/images/nyala.png"",""stims/images/turtle.png"",""stims/images/tiger.png""]","nyala","","unfamiliar","posttest","2","stims/audio/find_nyala.wav","5","stims/images/nyala.png","1","","","","","","","","","","","","",""
"coact-test-prompt","52","332222","0.0-52.0","p045","2","1","","","","","","1574","","","[""stims/images/dolphin.png"",""stims/images/manatee.png"",""stims/images/sloth.png"",""stims/images/tiger.png"",""stims/images/nyala.png"",""stims/images/hippopotamus.png"",""stims/images/pangolin.png"",""stims/images/turtle.png""]","pangolin","stims/images/pangolin.png","unfamiliar","posttest","2","","","","","","","","","","","","","","","","",""
"coact-test","53","345131","0.0-53.0","p045","2","1","","","","","","351719.896","","","[""stims/images/dolphin.png"",""stims/images/manatee.png"",""stims/images/sloth.png"",""stims/images/tiger.png"",""stims/images/nyala.png"",""stims/images/hippopotamus.png"",""stims/images/pangolin.png"",""stims/images/turtle.png""]","pangolin","","unfamiliar","posttest","2","stims/audio/wheres_pangolin.wav","6","stims/images/pangolin.png","1","","","","","","","","","","","","",""
"coact-test-prompt","54","349540","0.0-54.0","p045","2","1","","","","","","4408","","","[""stims/images/tiger.png"",""stims/images/pangolin.png"",""stims/images/hippopotamus.png"",""stims/images/sloth.png"",""stims/images/dolphin.png"",""stims/images/nyala.png"",""stims/images/manatee.png"",""stims/images/turtle.png""]","dolphin","stims/images/dolphin.png","somewhat familiar","posttest","2","","","","","","","","","","","","","","","","",""
"coact-test","55","355260","0.0-55.0","p045","2","1","","","","","","361832.576","","","[""stims/images/tiger.png"",""stims/images/pangolin.png"",""stims/images/hippopotamus.png"",""stims/images/sloth.png"",""stims/images/dolphin.png"",""stims/images/nyala.png"",""stims/images/manatee.png"",""stims/images/turtle.png""]","dolphin","","somewhat familiar","posttest","2","stims/audio/wheres_dolphin.wav","4","stims/images/dolphin.png","1","","","","","","","","","","","","",""
"coact-test-prompt","56","359688","0.0-56.0","p045","2","1","","","","","","4428","","","[""stims/images/dolphin.png"",""stims/images/tiger.png"",""stims/images/manatee.png"",""stims/images/nyala.png"",""stims/images/pangolin.png"",""stims/images/turtle.png"",""stims/images/hippopotamus.png"",""stims/images/sloth.png""]","hippopotamus","stims/images/hippopotamus.png","somewhat familiar","posttest","2","","","","","","","","","","","","","","","","",""
"coact-test","57","370349","0.0-57.0","p045","2","1","","","","","","376911.42933333333","","","[""stims/images/dolphin.png"",""stims/images/tiger.png"",""stims/images/manatee.png"",""stims/images/nyala.png"",""stims/images/pangolin.png"",""stims/images/turtle.png"",""stims/images/hippopotamus.png"",""stims/images/sloth.png""]","hippopotamus","","somewhat familiar","posttest","2","stims/audio/find_hippopotamus.wav","6","stims/images/hippopotamus.png","1","","","","","","","","","","","","",""
"coact-test-prompt","58","372252","0.0-58.0","p045","2","1","","","","","","1903","","","[""stims/images/nyala.png"",""stims/images/hippopotamus.png"",""stims/images/dolphin.png"",""stims/images/manatee.png"",""stims/images/tiger.png"",""stims/images/sloth.png"",""stims/images/turtle.png"",""stims/images/pangolin.png""]","sloth","stims/images/sloth.png","somewhat unfamiliar","posttest","2","","","","","","","","","","","","","","","","",""
"coact-test","59","387921","0.0-59.0","p045","2","1","","","","","","394471.86666666664","","","[""stims/images/nyala.png"",""stims/images/hippopotamus.png"",""stims/images/dolphin.png"",""stims/images/manatee.png"",""stims/images/tiger.png"",""stims/images/sloth.png"",""stims/images/turtle.png"",""stims/images/pangolin.png""]","sloth","","somewhat unfamiliar","posttest","2","stims/audio/find_sloth.wav","5","stims/images/sloth.png","1","","","","","","","","","","","","",""
"coact-test-prompt","60","390747","0.0-60.0","p045","2","1","","","","","","2825","","","[""stims/images/manatee.png"",""stims/images/tiger.png"",""stims/images/pangolin.png"",""stims/images/turtle.png"",""stims/images/hippopotamus.png"",""stims/images/nyala.png"",""stims/images/dolphin.png"",""stims/images/sloth.png""]","tiger","stims/images/tiger.png","familiar","posttest","2","","","","","","","","","","","","","","","","",""
"coact-test","61","395417","0.0-61.0","p045","2","1","","","","","","401950.37066666665","","","[""stims/images/manatee.png"",""stims/images/tiger.png"",""stims/images/pangolin.png"",""stims/images/turtle.png"",""stims/images/hippopotamus.png"",""stims/images/nyala.png"",""stims/images/dolphin.png"",""stims/images/sloth.png""]","tiger","","familiar","posttest","2","stims/audio/wheres_tiger.wav","1","stims/images/tiger.png","1","","","","","","","","","","","","",""
"coact-test-prompt","62","398334","0.0-62.0","p045","2","1","","","","","","2916","","","[""stims/images/nyala.png"",""stims/images/hippopotamus.png"",""stims/images/manatee.png"",""stims/images/turtle.png"",""stims/images/pangolin.png"",""stims/images/tiger.png"",""stims/images/sloth.png"",""stims/images/dolphin.png""]","manatee","stims/images/manatee.png","somewhat unfamiliar","posttest","2","","","","","","","","","","","","","","","","",""
"coact-test","63","406590","0.0-63.0","p045","2","1","","","","","","413116.784","","","[""stims/images/nyala.png"",""stims/images/hippopotamus.png"",""stims/images/manatee.png"",""stims/images/turtle.png"",""stims/images/pangolin.png"",""stims/images/tiger.png"",""stims/images/sloth.png"",""stims/images/dolphin.png""]","manatee","","somewhat unfamiliar","posttest","2","stims/audio/find_manatee.wav","4","stims/images/pangolin.png","0","","","","","","","","","","","","",""
"coact-test-prompt","64","408190","0.0-64.0","p045","2","1","","","","","","1599","","","[""stims/images/dolphin.png"",""stims/images/turtle.png"",""stims/images/sloth.png"",""stims/images/manatee.png"",""stims/images/pangolin.png"",""stims/images/tiger.png"",""stims/images/nyala.png"",""stims/images/hippopotamus.png""]","turtle","stims/images/turtle.png","familiar","posttest","2","","","","","","","","","","","","","","","","",""
"coact-test","65","414737","0.0-65.0","p045","2","1","","","","","","421253.9280000001","","","[""stims/images/dolphin.png"",""stims/images/turtle.png"",""stims/images/sloth.png"",""stims/images/manatee.png"",""stims/images/pangolin.png"",""stims/images/tiger.png"",""stims/images/nyala.png"",""stims/images/hippopotamus.png""]","turtle","","familiar","posttest","2","stims/audio/wheres_turtle.wav","1","stims/images/turtle.png","1","","","","","","","","","","","","",""
