"trial_type","trial_index","time_elapsed","internal_node_id","subject_id","round_name","round_index","success","timeout","failed_images","failed_audio","failed_video","rt","stimulus","response","images","target","target_image","target_type","round_type","set","test_audio","choice","chosen_image","correct","choices","chosen_images","chosen_items","chosen_audio_items","first_choice_location","chosen_images_in_order","chosen_audio_in_order","chosen_items_in_order","condition","sample_num","chosen_index","chosen_audio","central_images"
"pavlovia","0","4","0.0-0.0","p059","2","1","","","","","","","","","","","","","","","","","","","","","","","","","","","","","","",""
"preload","1","293","0.0-1.0","p059","2","1","true","false","[]","[]","[]","","","","","","","","","","","","","","","","","","","","","","","","","",""
"html-button-response","2","5783","0.0-2.0","p059","2","1","","","","","","5489","","0","","","","","","","","","","","","","","","","","","","","","","",""
"coact-test-prompt","3","7902","0.0-3.0","p059","2","1","","","","","","2116.999999999998","","","[""stims/images/butterfly.png"",""stims/images/wolf.png"",""stims/images/horse.png"",""stims/images/cow.png"",""stims/images/squirrel.png"",""stims/images/cat.png"",""stims/images/duck.png"",""stims/images/frog.png""]","squirrel","stims/images/squirrel.png","familiar","practice_pretest","familiar","","","","","","","","","","","","","","","","",""
"coact-test","4","12958","0.0-4.0","p059","2","1","","","","","","17380.189333333332","","","[""stims/images/butterfly.png"",""stims/images/wolf.png"",""stims/images/horse.png"",""stims/images/cow.png"",""stims/images/squirrel.png"",""stims/images/cat.png"",""stims/images/duck.png"",""stims/images/frog.png""]","squirrel","","familiar","practice_pretest","familiar","stims/audio/find_squirrel.wav","4","stims/images/squirrel.png","1","","","","","","","","","","","","",""
"coact-test-prompt","5","13837","0.0-5.0","p059","2","1","","","","","","877","","","[""stims/images/cat.png"",""stims/images/wolf.png"",""stims/images/duck.png"",""stims/images/frog.png"",""stims/images/squirrel.png"",""stims/images/cow.png"",""stims/images/horse.png"",""stims/images/butterfly.png""]","horse","stims/images/horse.png","familiar","practice_pretest","familiar","","","","","","","","","","","","","","","","",""
"coact-test","6","17134","0.0-6.0","p059","2","1","","","","","","21550.256","","","[""stims/images/cat.png"",""stims/images/wolf.png"",""stims/images/duck.png"",""stims/images/frog.png"",""stims/images/squirrel.png"",""stims/images/cow.png"",""stims/images/horse.png"",""stims/images/butterfly.png""]","horse","","familiar","practice_pretest","familiar","stims/audio/wheres_horse.wav","6","stims/images/horse.png","1","","","","","","","","","","","","",""
"coact-test-prompt","7","18265","0.0-7.0","p059","2","1","","","","","","1130","","","[""stims/images/zebra.png"",""stims/images/porcupine.png"",""stims/images/hippopotamus.png"",""stims/images/wombat.png"",""stims/images/pig.png"",""stims/images/lynx.png"",""stims/images/aardvark.png"",""stims/images/tarsier.png""]","aardvark","stims/images/aardvark.png","somewhat unfamiliar","pretest","2","","","","","","","","","","","","","","","","",""
"coact-test","8","21993","0.0-8.0","p059","2","1","","","","","","26404.829333333335","","","[""stims/images/zebra.png"",""stims/images/porcupine.png"",""stims/images/hippopotamus.png"",""stims/images/wombat.png"",""stims/images/pig.png"",""stims/images/lynx.png"",""stims/images/aardvark.png"",""stims/images/tarsier.png""]","aardvark","","somewhat unfamiliar","pretest","2","stims/audio/wheres_aardvark.wav","7","stims/images/tarsier.png","0","","","","","","","","","","","","",""
"coact-test-prompt","9","22997","0.0-9.0","p059","2","1","","","","","","1001.9999999999964","","","[""stims/images/zebra.png"",""stims/images/tarsier.png"",""stims/images/aardvark.png"",""stims/images/pig.png"",""stims/images/lynx.png"",""stims/images/porcupine.png"",""stims/images/wombat.png"",""stims/images/hippopotamus.png""]","porcupine","stims/images/porcupine.png","somewhat familiar","pretest","2","","","","","","","","","","","","","","","","",""
"coact-test","10","26714","0.0-10.0","p059","2","1","","","","","","31121.09866666667","","","[""stims/images/zebra.png"",""stims/images/tarsier.png"",""stims/images/aardvark.png"",""stims/images/pig.png"",""stims/images/lynx.png"",""stims/images/porcupine.png"",""stims/images/wombat.png"",""stims/images/hippopotamus.png""]","porcupine","","somewhat familiar","pretest","2","stims/audio/find_porcupine.wav","5","stims/images/porcupine.png","1","","","","","","","","","","","","",""
"coact-test-prompt","11","28187","0.0-11.0","p059","2","1","","","","","","1471","","","[""stims/images/lynx.png"",""stims/images/zebra.png"",""stims/images/tarsier.png"",""stims/images/hippopotamus.png"",""stims/images/pig.png"",""stims/images/porcupine.png"",""stims/images/aardvark.png"",""stims/images/wombat.png""]","wombat","stims/images/wombat.png","unfamiliar","pretest","2","","","","","","","","","","","","","","","","",""
"coact-test","12","31726","0.0-12.0","p059","2","1","","","","","","36128.90666666667","","","[""stims/images/lynx.png"",""stims/images/zebra.png"",""stims/images/tarsier.png"",""stims/images/hippopotamus.png"",""stims/images/pig.png"",""stims/images/porcupine.png"",""stims/images/aardvark.png"",""stims/images/wombat.png""]","wombat","","unfamiliar","pretest","2","stims/audio/wheres_wombat.wav","2","stims/images/tarsier.png","0","","","","","","","","","","","","",""
"coact-test-prompt","13","32935","0.0-13.0","p059","2","1","","","","","","1207","","","[""stims/images/pig.png"",""stims/images/hippopotamus.png"",""stims/images/lynx.png"",""stims/images/porcupine.png"",""stims/images/tarsier.png"",""stims/images/aardvark.png"",""stims/images/wombat.png"",""stims/images/zebra.png""]","hippopotamus","stims/images/hippopotamus.png","somewhat familiar","pretest","2","","","","","","","","","","","","","","","","",""
"coact-test","14","37729","0.0-14.0","p059","2","1","","","","","","42126.16","","","[""stims/images/pig.png"",""stims/images/hippopotamus.png"",""stims/images/lynx.png"",""stims/images/porcupine.png"",""stims/images/tarsier.png"",""stims/images/aardvark.png"",""stims/images/wombat.png"",""stims/images/zebra.png""]","hippopotamus","","somewhat familiar","pretest","2","stims/audio/find_hippopotamus.wav","1","stims/images/hippopotamus.png","1","","","","","","","","","","","","",""
"coact-test-prompt","15","38712","0.0-15.0","p059","2","1","","","","","","981","","","[""stims/images/wombat.png"",""stims/images/lynx.png"",""stims/images/porcupine.png"",""stims/images/pig.png"",""stims/images/zebra.png"",""stims/images/aardvark.png"",""stims/images/tarsier.png"",""stims/images/hippopotamus.png""]","pig","stims/images/pig.png","familiar","pretest","2","","","","","","","","","","","","","","","","",""
"coact-test","16","42247","0.0-16.0","p059","2","1","","","","","","46638.384","","","[""stims/images/wombat.png"",""stims/images/lynx.png"",""stims/images/porcupine.png"",""stims/images/pig.png"",""stims/images/zebra.png"",""stims/images/aardvark.png"",""stims/images/tarsier.png"",""stims/images/hippopotamus.png""]","pig","","familiar","pretest","2","stims/audio/wheres_pig.wav","5","stims/images/aardvark.png","0","","","","","","","","","","","","",""
"coact-test-prompt","17","43439","0.0-17.0","p059","2","1","","","","","","1191","","","[""stims/images/aardvark.png"",""stims/images/porcupine.png"",""stims/images/pig.png"",""stims/images/hippopotamus.png"",""stims/images/zebra.png"",""stims/images/tarsier.png"",""stims/images/lynx.png"",""stims/images/wombat.png""]","zebra","stims/images/zebra.png","familiar","pretest","2","","","","","","","","","","","","","","","","",""
"coact-test","18","48051","0.0-18.0","p059","2","1","","","","","","52437.65866666667","","","[""stims/images/aardvark.png"",""stims/images/porcupine.png"",""stims/images/pig.png"",""stims/images/hippopotamus.png"",""stims/images/zebra.png"",""stims/images/tarsier.png"",""stims/images/lynx.png"",""stims/images/wombat.png""]","zebra","","familiar","pretest","2","stims/audio/wheres_zebra.wav","4","stims/images/zebra.png","1","","","","","","","","","","","","",""
"coact-test-prompt","19","49526","0.0-19.0","p059","2","1","","","","","","1474","","","[""stims/images/aardvark.png"",""stims/images/tarsier.png"",""stims/images/pig.png"",""stims/images/lynx.png"",""stims/images/hippopotamus.png"",""stims/images/zebra.png"",""stims/images/wombat.png"",""stims/images/porcupine.png""]","tarsier","stims/images/tarsier.png","unfamiliar","pretest","2","","","","","","","","","","","","","","","","",""
"coact-test","20","53388","0.0-20.0","p059","2","1","","","","","","57768.57066666667","","","[""stims/images/aardvark.png"",""stims/images/tarsier.png"",""stims/images/pig.png"",""stims/images/lynx.png"",""stims/images/hippopotamus.png"",""stims/images/zebra.png"",""stims/images/wombat.png"",""stims/images/porcupine.png""]","tarsier","","unfamiliar","pretest","2","stims/audio/find_tarsier.wav","6","stims/images/wombat.png","0","","","","","","","","","","","","",""
"coact-test-prompt","21","54739","0.0-21.0","p059","2","1","","","","","","1350","","","[""stims/images/porcupine.png"",""stims/images/aardvark.png"",""stims/images/pig.png"",""stims/images/lynx.png"",""stims/images/hippopotamus.png"",""stims/images/wombat.png"",""stims/images/tarsier.png"",""stims/images/zebra.png""]","lynx","stims/images/lynx.png","somewhat unfamiliar","pretest","2","","","","","","","","","","","","","","","","",""
"coact-test","22","58184","0.0-22.0","p059","2","1","","","","","","62560.35733333333","","","[""stims/images/porcupine.png"",""stims/images/aardvark.png"",""stims/images/pig.png"",""stims/images/lynx.png"",""stims/images/hippopotamus.png"",""stims/images/wombat.png"",""stims/images/tarsier.png"",""stims/images/zebra.png""]","lynx","","somewhat unfamiliar","pretest","2","stims/audio/find_lynx.wav","4","stims/images/hippopotamus.png","0","","","","","","","","","","","","",""
"html-button-response","23","63903","0.0-23.0","p059","2","1","","","","","","5717.000000000015","","0","","","","","","","","","","","","","","","","","","","","","","",""
"coact-grid","24","71697","0.0-24.0","p059","2","1","","","","","","6487.000000000015","","","[""stims/images/butterfly.png"",""stims/images/wolf.png"",""stims/images/squirrel.png"",""stims/images/cat.png"",""stims/images/duck.png"",""stims/images/frog.png"",""stims/images/horse.png"",""stims/images/cow.png""]","","","","","familiar","","","","","[1,0]","[""stims/images/wolf.png"",""stims/images/butterfly.png""]","[""wolf"",""butterfly""]","[""stims/audio/its_wolf.wav"",""stims/audio/its_butterfly.wav""]","left","[""stims/images/wolf.png"",""stims/images/butterfly.png""]","[""stims/audio/its_wolf.wav"",""stims/audio/its_butterfly.wav""]","[""wolf"",""butterfly""]","active","0","","",""
"coact-grid-choice","25","74295","0.0-25.0","p059","2","1","","","","","","2598","","","[""stims/images/butterfly.png"",""stims/images/wolf.png"",""stims/images/squirrel.png"",""stims/images/cat.png"",""stims/images/duck.png"",""stims/images/frog.png"",""stims/images/horse.png"",""stims/images/cow.png""]","","","","","familiar","","","stims/images/butterfly.png","","","[""stims/images/wolf.png"",""stims/images/butterfly.png""]","","","","[""stims/images/wolf.png"",""stims/images/butterfly.png""]","[""stims/audio/its_wolf.wav"",""stims/audio/its_butterfly.wav""]","[""wolf"",""butterfly""]","passive","0","1","stims/audio/its_butterfly.wav","[""stims/images/wolf.png"",""stims/images/butterfly.png""]"
"coact-grid-choice-audio","26","77305","0.0-26.0","p059","2","1","","","","","","3003","","","[""stims/images/butterfly.png"",""stims/images/wolf.png"",""stims/images/squirrel.png"",""stims/images/cat.png"",""stims/images/duck.png"",""stims/images/frog.png"",""stims/images/horse.png"",""stims/images/cow.png""]","","","","","familiar","","","stims/images/butterfly.png","","","","","","","","","","passive","0","","stims/audio/its_butterfly.wav","[""stims/images/wolf.png"",""stims/images/butterfly.png""]"
"coact-grid","27","83290","0.0-27.0","p059","2","1","","","","","","4677","","","[""stims/images/lynx.png"",""stims/images/porcupine.png"",""stims/images/hippopotamus.png"",""stims/images/pig.png"",""stims/images/wombat.png"",""stims/images/tarsier.png"",""stims/images/aardvark.png"",""stims/images/zebra.png""]","","","","","2","","","","","[5,6]","[""stims/images/tarsier.png"",""stims/images/aardvark.png""]","[""tarsier"",""aardvark""]","[""stims/audio/its_tarsier.wav"",""stims/audio/its_aardvark.wav""]","left","[""stims/images/tarsier.png"",""stims/images/aardvark.png""]","[""stims/audio/its_tarsier.wav"",""stims/audio/its_aardvark.wav""]","[""tarsier"",""aardvark""]","active","0","","",""
"coact-grid-choice","28","84302","0.0-28.0","p059","2","1","","","","","","1010","","","[""stims/images/lynx.png"",""stims/images/porcupine.png"",""stims/images/hippopotamus.png"",""stims/images/pig.png"",""stims/images/wombat.png"",""stims/images/tarsier.png"",""stims/images/aardvark.png"",""stims/images/zebra.png""]","","","","","2","","","stims/images/tarsier.png","","","[""stims/images/tarsier.png"",""stims/images/aardvark.png""]","","","","[""stims/images/tarsier.png"",""stims/images/aardvark.png""]","[""stims/audio/its_tarsier.wav"",""stims/audio/its_aardvark.wav""]","[""tarsier"",""aardvark""]","passive","0","0","stims/audio/its_tarsier.wav","[""stims/images/tarsier.png"",""stims/images/aardvark.png""]"
"coact-grid-choice-audio","29","87311","0.0-29.0","p059","2","1","","","","","","3003","","","[""stims/images/lynx.png"",""stims/images/porcupine.png"",""stims/images/hippopotamus.png"",""stims/images/pig.png"",""stims/images/wombat.png"",""stims/images/tarsier.png"",""stims/images/aardvark.png"",""stims/images/zebra.png""]","","","","","2","","","stims/images/tarsier.png","","","","","","","","","","passive","0","","stims/audio/its_tarsier.wav","[""stims/images/tarsier.png"",""stims/images/aardvark.png""]"
"coact-grid","30","92635","0.0-30.0","p059","2","1","","","","","","4016","","","[""stims/images/tarsier.png"",""stims/images/lynx.png"",""stims/images/zebra.png"",""stims/images/porcupine.png"",""stims/images/wombat.png"",""stims/images/aardvark.png"",""stims/images/hippopotamus.png"",""stims/images/pig.png""]","","","","","2","","","","","[4,3]","[""stims/images/wombat.png"",""stims/images/porcupine.png""]","[""wombat"",""porcupine""]","[""stims/audio/its_wombat.wav"",""stims/audio/its_porcupine.wav""]","right","[""stims/images/porcupine.png"",""stims/images/wombat.png""]","[""stims/audio/its_porcupine.wav"",""stims/audio/its_wombat.wav""]","[""porcupine"",""wombat""]","active","1","","",""
"coact-grid-choice","31","93574","0.0-31.0","p059","2","1","","","","","","937","","","[""stims/images/tarsier.png"",""stims/images/lynx.png"",""stims/images/zebra.png"",""stims/images/porcupine.png"",""stims/images/wombat.png"",""stims/images/aardvark.png"",""stims/images/hippopotamus.png"",""stims/images/pig.png""]","","","","","2","","","stims/images/porcupine.png","","","[""stims/images/wombat.png"",""stims/images/porcupine.png""]","","","","[""stims/images/porcupine.png"",""stims/images/wombat.png""]","[""stims/audio/its_porcupine.wav"",""stims/audio/its_wombat.wav""]","[""porcupine"",""wombat""]","passive","1","0","stims/audio/its_porcupine.wav","[""stims/images/porcupine.png"",""stims/images/wombat.png""]"
"coact-grid-choice-audio","32","96583","0.0-32.0","p059","2","1","","","","","","3000","","","[""stims/images/tarsier.png"",""stims/images/lynx.png"",""stims/images/zebra.png"",""stims/images/porcupine.png"",""stims/images/wombat.png"",""stims/images/aardvark.png"",""stims/images/hippopotamus.png"",""stims/images/pig.png""]","","","","","2","","","stims/images/porcupine.png","","","","","","","","","","passive","1","","stims/audio/its_porcupine.wav","[""stims/images/porcupine.png"",""stims/images/wombat.png""]"
"coact-grid","33","102242","0.0-33.0","p059","2","1","","","","","","4351","","","[""stims/images/porcupine.png"",""stims/images/lynx.png"",""stims/images/hippopotamus.png"",""stims/images/pig.png"",""stims/images/zebra.png"",""stims/images/tarsier.png"",""stims/images/wombat.png"",""stims/images/aardvark.png""]","","","","","2","","","","","[1,7]","[""stims/images/lynx.png"",""stims/images/aardvark.png""]","[""lynx"",""aardvark""]","[""stims/audio/its_lynx.wav"",""stims/audio/its_aardvark.wav""]","right","[""stims/images/aardvark.png"",""stims/images/lynx.png""]","[""stims/audio/its_aardvark.wav"",""stims/audio/its_lynx.wav""]","[""aardvark"",""lynx""]","active","2","","",""
"coact-grid-choice","34","103114","0.0-34.0","p059","2","1","","","","","","871","","","[""stims/images/porcupine.png"",""stims/images/lynx.png"",""stims/images/hippopotamus.png"",""stims/images/pig.png"",""stims/images/zebra.png"",""stims/images/tarsier.png"",""stims/images/wombat.png"",""stims/images/aardvark.png""]","","","","","2","","","stims/images/lynx.png","","","[""stims/images/lynx.png"",""stims/images/aardvark.png""]","","","","[""stims/images/aardvark.png"",""stims/images/lynx.png""]","[""stims/audio/its_aardvark.wav"",""stims/audio/its_lynx.wav""]","[""aardvark"",""lynx""]","passive","2","1","stims/audio/its_lynx.wav","[""stims/images/aardvark.png"",""stims/images/lynx.png""]"
"coact-grid-choice-audio","35","106124","0.0-35.0","p059","2","1","","","","","","3000","","","[""stims/images/porcupine.png"",""stims/images/lynx.png"",""stims/images/hippopotamus.png"",""stims/images/pig.png"",""stims/images/zebra.png"",""stims/images/tarsier.png"",""stims/images/wombat.png"",""stims/images/aardvark.png""]","","","","","2","","","stims/images/lynx.png","","","","","","","","","","passive","2","","stims/audio/its_lynx.wav","[""stims/images/aardvark.png"",""stims/images/lynx.png""]"
"coact-grid","36","111313","0.0-36.0","p059","2","1","","","","","","3882","","","[""stims/images/pig.png"",""stims/images/porcupine.png"",""stims/images/lynx.png"",""stims/images/wombat.png"",""stims/images/aardvark.png"",""stims/images/tarsier.png"",""stims/images/zebra.png"",""stims/images/hippopotamus.png""]","","","","","2","","","","","[0,5]","[""stims/images/pig.png"",""stims/images/tarsier.png""]","[""pig"",""tarsier""]","[""stims/audio/thats_pig.wav"",""stims/audio/thats_tarsier.wav""]","right","[""stims/images/tarsier.png"",""stims/images/pig.png""]","[""stims/audio/thats_tarsier.wav"",""stims/audio/thats_pig.wav""]","[""tarsier"",""pig""]","active","3","","",""
"coact-grid-choice","37","112219","0.0-37.0","p059","2","1","","","","","","904","","","[""stims/images/pig.png"",""stims/images/porcupine.png"",""stims/images/lynx.png"",""stims/images/wombat.png"",""stims/images/aardvark.png"",""stims/images/tarsier.png"",""stims/images/zebra.png"",""stims/images/hippopotamus.png""]","","","","","2","","","stims/images/tarsier.png","","","[""stims/images/pig.png"",""stims/images/tarsier.png""]","","","","[""stims/images/tarsier.png"",""stims/images/pig.png""]","[""stims/audio/thats_tarsier.wav"",""stims/audio/thats_pig.wav""]","[""tarsier"",""pig""]","passive","3","0","stims/audio/thats_tarsier.wav","[""stims/images/tarsier.png"",""stims/images/pig.png""]"
"coact-grid-choice-audio","38","115226","0.0-38.0","p059","2","1","","","","","","3000","","","[""stims/images/pig.png"",""stims/images/porcupine.png"",""stims/images/lynx.png"",""stims/images/wombat.png"",""stims/images/aardvark.png"",""stims/images/tarsier.png"",""stims/images/zebra.png"",""stims/images/hippopotamus.png""]","","","","","2","","","stims/images/tarsier.png","","","","","","","","","","passive","3","","stims/audio/thats_tarsier.wav","[""stims/images/tarsier.png"",""stims/images/pig.png""]"
"coact-grid","39","120259","0.0-39.0","p059","2","1","","","","","","3725","","","[""stims/images/hippopotamus.png"",""stims/images/tarsier.png"",""stims/images/porcupine.png"",""stims/images/pig.png"",""stims/images/wombat.png"",""stims/images/lynx.png"",""stims/images/zebra.png"",""stims/images/aardvark.png""]","","","","","2","","","","","[6,3]","[""stims/images/zebra.png"",""stims/images/pig.png""]","[""zebra"",""pig""]","[""stims/audio/thats_zebra.wav"",""stims/audio/thats_pig.wav""]","left","[""stims/images/zebra.png"",""stims/images/pig.png""]","[""stims/audio/thats_zebra.wav"",""stims/audio/thats_pig.wav""]","[""zebra"",""pig""]","active","4","","",""
"coact-grid-choice","40","121258","0.0-40.0","p059","2","1","","","","","","998","","","[""stims/images/hippopotamus.png"",""stims/images/tarsier.png"",""stims/images/porcupine.png"",""stims/images/pig.png"",""stims/images/wombat.png"",""stims/images/lynx.png"",""stims/images/zebra.png"",""stims/images/aardvark.png""]","","","","","2","","","stims/images/zebra.png","","","[""stims/images/zebra.png"",""stims/images/pig.png""]","","","","[""stims/images/zebra.png"",""stims/images/pig.png""]","[""stims/audio/thats_zebra.wav"",""stims/audio/thats_pig.wav""]","[""zebra"",""pig""]","passive","4","0","stims/audio/thats_zebra.wav","[""stims/images/zebra.png"",""stims/images/pig.png""]"
"coact-grid-choice-audio","41","124265","0.0-41.0","p059","2","1","","","","","","3003","","","[""stims/images/hippopotamus.png"",""stims/images/tarsier.png"",""stims/images/porcupine.png"",""stims/images/pig.png"",""stims/images/wombat.png"",""stims/images/lynx.png"",""stims/images/zebra.png"",""stims/images/aardvark.png""]","","","","","2","","","stims/images/zebra.png","","","","","","","","","","passive","4","","stims/audio/thats_zebra.wav","[""stims/images/zebra.png"",""stims/images/pig.png""]"
"coact-grid","42","129966","0.0-42.0","p059","2","1","","","","","","4393.999999999985","","","[""stims/images/porcupine.png"",""stims/images/lynx.png"",""stims/images/hippopotamus.png"",""stims/images/wombat.png"",""stims/images/zebra.png"",""stims/images/aardvark.png"",""stims/images/tarsier.png"",""stims/images/pig.png""]","","","","","2","","","","","[1,4]","[""stims/images/lynx.png"",""stims/images/zebra.png""]","[""lynx"",""zebra""]","[""stims/audio/thats_lynx.wav"",""stims/audio/thats_zebra.wav""]","left","[""stims/images/lynx.png"",""stims/images/zebra.png""]","[""stims/audio/thats_lynx.wav"",""stims/audio/thats_zebra.wav""]","[""lynx"",""zebra""]","active","5","","",""
"coact-grid-choice","43","131065","0.0-43.0","p059","2","1","","","","","","1099","","","[""stims/images/porcupine.png"",""stims/images/lynx.png"",""stims/images/hippopotamus.png"",""stims/images/wombat.png"",""stims/images/zebra.png"",""stims/images/aardvark.png"",""stims/images/tarsier.png"",""stims/images/pig.png""]","","","","","2","","","stims/images/lynx.png","","","[""stims/images/lynx.png"",""stims/images/zebra.png""]","","","","[""stims/images/lynx.png"",""stims/images/zebra.png""]","[""stims/audio/thats_lynx.wav"",""stims/audio/thats_zebra.wav""]","[""lynx"",""zebra""]","passive","5","0","stims/audio/thats_lynx.wav","[""stims/images/lynx.png"",""stims/images/zebra.png""]"
"coact-grid-choice-audio","44","134074","0.0-44.0","p059","2","1","","","","","","3003","","","[""stims/images/porcupine.png"",""stims/images/lynx.png"",""stims/images/hippopotamus.png"",""stims/images/wombat.png"",""stims/images/zebra.png"",""stims/images/aardvark.png"",""stims/images/tarsier.png"",""stims/images/pig.png""]","","","","","2","","","stims/images/lynx.png","","","","","","","","","","passive","5","","stims/audio/thats_lynx.wav","[""stims/images/lynx.png"",""stims/images/zebra.png""]"
"html-button-response","45","143053","0.0-45.0","p059","2","1","","","","","","8978","","0","","","","","","","","","","","","","","","","","","","","","","",""
"coact-test-prompt","46","144822","0.0-46.0","p059","2","1","","","","","","1769","","","[""stims/images/butterfly.png"",""stims/images/squirrel.png"",""stims/images/frog.png"",""stims/images/cat.png"",""stims/images/cow.png"",""stims/images/horse.png"",""stims/images/duck.png"",""stims/images/wolf.png""]","squirrel","stims/images/squirrel.png","familiar","practice_posttest","familiar","","","","","","","","","","","","","","","","",""
"coact-test","47","149016","0.0-47.0","p059","2","1","","","","","","153301.28","","","[""stims/images/butterfly.png"",""stims/images/squirrel.png"",""stims/images/frog.png"",""stims/images/cat.png"",""stims/images/cow.png"",""stims/images/horse.png"",""stims/images/duck.png"",""stims/images/wolf.png""]","squirrel","","familiar","practice_posttest","familiar","stims/audio/find_squirrel.wav","1","stims/images/squirrel.png","1","","","","","","","","","","","","",""
"coact-test-prompt","48","149872","0.0-48.0","p059","2","1","","","","","","855","","","[""stims/images/cow.png"",""stims/images/horse.png"",""stims/images/cat.png"",""stims/images/duck.png"",""stims/images/frog.png"",""stims/images/wolf.png"",""stims/images/butterfly.png"",""stims/images/squirrel.png""]","horse","stims/images/horse.png","familiar","practice_posttest","familiar","","","","","","","","","","","","","","","","",""
"coact-test","49","153778","0.0-49.0","p059","2","1","","","","","","158058.22933333332","","","[""stims/images/cow.png"",""stims/images/horse.png"",""stims/images/cat.png"",""stims/images/duck.png"",""stims/images/frog.png"",""stims/images/wolf.png"",""stims/images/butterfly.png"",""stims/images/squirrel.png""]","horse","","familiar","practice_posttest","familiar","stims/audio/find_horse.wav","1","stims/images/horse.png","1","","","","","","","","","","","","",""
"coact-test-prompt","50","155435","0.0-50.0","p059","2","1","","","","","","1656","","","[""stims/images/aardvark.png"",""stims/images/pig.png"",""stims/images/tarsier.png"",""stims/images/zebra.png"",""stims/images/hippopotamus.png"",""stims/images/lynx.png"",""stims/images/porcupine.png"",""stims/images/wombat.png""]","aardvark","stims/images/aardvark.png","somewhat unfamiliar","posttest","2","","","","","","","","","","","","","","","","",""
"coact-test","51","158789","0.0-51.0","p059","2","1","","","","","","163063.66666666666","","","[""stims/images/aardvark.png"",""stims/images/pig.png"",""stims/images/tarsier.png"",""stims/images/zebra.png"",""stims/images/hippopotamus.png"",""stims/images/lynx.png"",""stims/images/porcupine.png"",""stims/images/wombat.png""]","aardvark","","somewhat unfamiliar","posttest","2","stims/audio/wheres_aardvark.wav","2","stims/images/tarsier.png","0","","","","","","","","","","","","",""
"coact-test-prompt","52","159800","0.0-52.0","p059","2","1","","","","","","1010","","","[""stims/images/wombat.png"",""stims/images/aardvark.png"",""stims/images/lynx.png"",""stims/images/pig.png"",""stims/images/tarsier.png"",""stims/images/zebra.png"",""stims/images/porcupine.png"",""stims/images/hippopotamus.png""]","hippopotamus","stims/images/hippopotamus.png","somewhat familiar","posttest","2","","","","","","","","","","","","","","","","",""
"coact-test","53","165200","0.0-53.0","p059","2","1","","","","","","169470.304","","","[""stims/images/wombat.png"",""stims/images/aardvark.png"",""stims/images/lynx.png"",""stims/images/pig.png"",""stims/images/tarsier.png"",""stims/images/zebra.png"",""stims/images/porcupine.png"",""stims/images/hippopotamus.png""]","hippopotamus","","somewhat familiar","posttest","2","stims/audio/find_hippopotamus.wav","7","stims/images/hippopotamus.png","1","","","","","","","","","","","","",""
"coact-test-prompt","54","166399","0.0-54.0","p059","2","1","","","","","","1198.000000000029","","","[""stims/images/aardvark.png"",""stims/images/hippopotamus.png"",""stims/images/porcupine.png"",""stims/images/lynx.png"",""stims/images/zebra.png"",""stims/images/pig.png"",""stims/images/tarsier.png"",""stims/images/wombat.png""]","lynx","stims/images/lynx.png","somewhat unfamiliar","posttest","2","","","","","","","","","","","","","","","","",""
"coact-test","55","169821","0.0-55.0","p059","2","1","","","","","","174085.704","","","[""stims/images/aardvark.png"",""stims/images/hippopotamus.png"",""stims/images/porcupine.png"",""stims/images/lynx.png"",""stims/images/zebra.png"",""stims/images/pig.png"",""stims/images/tarsier.png"",""stims/images/wombat.png""]","lynx","","somewhat unfamiliar","posttest","2","stims/audio/wheres_lynx.wav","3","stims/images/lynx.png","1","","","","","","","","","","","","",""
"coact-test-prompt","56","170728","0.0-56.0","p059","2","1","","","","","","905","","","[""stims/images/wombat.png"",""stims/images/tarsier.png"",""stims/images/aardvark.png"",""stims/images/hippopotamus.png"",""stims/images/lynx.png"",""stims/images/pig.png"",""stims/images/porcupine.png"",""stims/images/zebra.png""]","porcupine","stims/images/porcupine.png","somewhat familiar","posttest","2","","","","","","","","","","","","","","","","",""
"coact-test","57","174221","0.0-57.0","p059","2","1","","","","","","178480.376","","","[""stims/images/wombat.png"",""stims/images/tarsier.png"",""stims/images/aardvark.png"",""stims/images/hippopotamus.png"",""stims/images/lynx.png"",""stims/images/pig.png"",""stims/images/porcupine.png"",""stims/images/zebra.png""]","porcupine","","somewhat familiar","posttest","2","stims/audio/wheres_porcupine.wav","6","stims/images/porcupine.png","1","","","","","","","","","","","","",""
"coact-test-prompt","58","175187","0.0-58.0","p059","2","1","","","","","","964","","","[""stims/images/hippopotamus.png"",""stims/images/lynx.png"",""stims/images/pig.png"",""stims/images/aardvark.png"",""stims/images/porcupine.png"",""stims/images/tarsier.png"",""stims/images/zebra.png"",""stims/images/wombat.png""]","zebra","stims/images/zebra.png","familiar","posttest","2","","","","","","","","","","","","","","","","",""
"coact-test","59","177790","0.0-59.0","p059","2","1","","","","","","182044.91733333335","","","[""stims/images/hippopotamus.png"",""stims/images/lynx.png"",""stims/images/pig.png"",""stims/images/aardvark.png"",""stims/images/porcupine.png"",""stims/images/tarsier.png"",""stims/images/zebra.png"",""stims/images/wombat.png""]","zebra","","familiar","posttest","2","stims/audio/find_zebra.wav","6","stims/images/zebra.png","1","","","","","","","","","","","","",""
"coact-test-prompt","60","178676","0.0-60.0","p059","2","1","","","","","","884","","","[""stims/images/hippopotamus.png"",""stims/images/wombat.png"",""stims/images/pig.png"",""stims/images/aardvark.png"",""stims/images/lynx.png"",""stims/images/zebra.png"",""stims/images/porcupine.png"",""stims/images/tarsier.png""]","wombat","stims/images/wombat.png","unfamiliar","posttest","2","","","","","","","","","","","","","","","","",""
"coact-test","61","183054","0.0-61.0","p059","2","1","","","","","","187305.42933333333","","","[""stims/images/hippopotamus.png"",""stims/images/wombat.png"",""stims/images/pig.png"",""stims/images/aardvark.png"",""stims/images/lynx.png"",""stims/images/zebra.png"",""stims/images/porcupine.png"",""stims/images/tarsier.png""]","wombat","","unfamiliar","posttest","2","stims/audio/find_wombat.wav","1","stims/images/wombat.png","1","","","","","","","","","","","","",""
"coact-test-prompt","62","184292","0.0-62.0","p059","2","1","","","","","","1236","","","[""stims/images/aardvark.png"",""stims/images/zebra.png"",""stims/images/pig.png"",""stims/images/porcupine.png"",""stims/images/hippopotamus.png"",""stims/images/lynx.png"",""stims/images/tarsier.png"",""stims/images/wombat.png""]","tarsier","stims/images/tarsier.png","unfamiliar","posttest","2","","","","","","","","","","","","","","","","",""
"coact-test","63","188331","0.0-63.0","p059","2","1","","","","","","192576.81333333332","","","[""stims/images/aardvark.png"",""stims/images/zebra.png"",""stims/images/pig.png"",""stims/images/porcupine.png"",""stims/images/hippopotamus.png"",""stims/images/lynx.png"",""stims/images/tarsier.png"",""stims/images/wombat.png""]","tarsier","","unfamiliar","posttest","2","stims/audio/find_tarsier.wav","7","stims/images/wombat.png","0","","","","","","","","","","","","",""
"coact-test-prompt","64","189532","0.0-64.0","p059","2","1","","","","","","1199","","","[""stims/images/wombat.png"",""stims/images/pig.png"",""stims/images/tarsier.png"",""stims/images/aardvark.png"",""stims/images/lynx.png"",""stims/images/porcupine.png"",""stims/images/zebra.png"",""stims/images/hippopotamus.png""]","pig","stims/images/pig.png","familiar","posttest","2","","","","","","","","","","","","","","","","",""
"coact-test","65","192627","0.0-65.0","p059","2","1","","","","","","196868.57333333333","","","[""stims/images/wombat.png"",""stims/images/pig.png"",""stims/images/tarsier.png"",""stims/images/aardvark.png"",""stims/images/lynx.png"",""stims/images/porcupine.png"",""stims/images/zebra.png"",""stims/images/hippopotamus.png""]","pig","","familiar","posttest","2","stims/audio/wheres_pig.wav","1","stims/images/pig.png","1","","","","","","","","","","","","",""
