"trial_type","trial_index","time_elapsed","internal_node_id","subject_id","round_name","round_index","success","timeout","failed_images","failed_audio","failed_video","rt","stimulus","response","images","target","target_image","target_type","round_type","set","test_audio","choice","chosen_image","correct","choices","chosen_images","chosen_items","chosen_audio_items","first_choice_location","chosen_images_in_order","chosen_audio_in_order","chosen_items_in_order","condition","sample_num","chosen_index","chosen_audio","central_images"
"pavlovia","0","2","0.0-0.0","p112","3","2","","","","","","","","","","","","","","","","","","","","","","","","","","","","","","",""
"preload","1","82","0.0-1.0","p112","3","2","true","false","[]","[]","[]","","","","","","","","","","","","","","","","","","","","","","","","","",""
"html-button-response","2","8491","0.0-2.0","p112","3","2","","","","","","8409","","0","","","","","","","","","","","","","","","","","","","","","","",""
"coact-test-prompt","3","10630","0.0-3.0","p112","3","2","","","","","","2137","","","[""stims/images/cat.png"",""stims/images/cow.png"",""stims/images/squirrel.png"",""stims/images/butterfly.png"",""stims/images/wolf.png"",""stims/images/duck.png"",""stims/images/frog.png"",""stims/images/horse.png""]","butterfly","stims/images/butterfly.png","familiar","practice_pretest","familiar","","","","","","","","","","","","","","","","",""
"coact-test","4","15048","0.0-4.0","p112","3","2","","","","","","17769.408","","","[""stims/images/cat.png"",""stims/images/cow.png"",""stims/images/squirrel.png"",""stims/images/butterfly.png"",""stims/images/wolf.png"",""stims/images/duck.png"",""stims/images/frog.png"",""stims/images/horse.png""]","butterfly","","familiar","practice_pretest","familiar","stims/audio/wheres_butterfly.wav","3","stims/images/butterfly.png","1","","","","","","","","","","","","",""
"coact-test-prompt","5","16172","0.0-5.0","p112","3","2","","","","","","1123","","","[""stims/images/squirrel.png"",""stims/images/horse.png"",""stims/images/cat.png"",""stims/images/butterfly.png"",""stims/images/frog.png"",""stims/images/duck.png"",""stims/images/cow.png"",""stims/images/wolf.png""]","wolf","stims/images/wolf.png","familiar","practice_pretest","familiar","","","","","","","","","","","","","","","","",""
"coact-test","6","20992","0.0-6.0","p112","3","2","","","","","","23707.869333333332","","","[""stims/images/squirrel.png"",""stims/images/horse.png"",""stims/images/cat.png"",""stims/images/butterfly.png"",""stims/images/frog.png"",""stims/images/duck.png"",""stims/images/cow.png"",""stims/images/wolf.png""]","wolf","","familiar","practice_pretest","familiar","stims/audio/find_wolf.wav","7","stims/images/wolf.png","1","","","","","","","","","","","","",""
"coact-test-prompt","7","23692","0.0-7.0","p112","3","2","","","","","","2700","","","[""stims/images/antelope.png"",""stims/images/turtle.png"",""stims/images/echidna.png"",""stims/images/lynx.png"",""stims/images/narwhal.png"",""stims/images/jaguar.png"",""stims/images/porcupine.png"",""stims/images/tiger.png""]","antelope","stims/images/antelope.png","somewhat unfamiliar","pretest","3","","","","","","","","","","","","","","","","",""
"coact-test","8","28054","0.0-8.0","p112","3","2","","","","","","30763.34933333333","","","[""stims/images/antelope.png"",""stims/images/turtle.png"",""stims/images/echidna.png"",""stims/images/lynx.png"",""stims/images/narwhal.png"",""stims/images/jaguar.png"",""stims/images/porcupine.png"",""stims/images/tiger.png""]","antelope","","somewhat unfamiliar","pretest","3","stims/audio/wheres_antelope.wav","0","stims/images/antelope.png","1","","","","","","","","","","","","",""
"coact-test-prompt","9","28838","0.0-9.0","p112","3","2","","","","","","782.0000000000036","","","[""stims/images/antelope.png"",""stims/images/tiger.png"",""stims/images/jaguar.png"",""stims/images/turtle.png"",""stims/images/lynx.png"",""stims/images/porcupine.png"",""stims/images/echidna.png"",""stims/images/narwhal.png""]","narwhal","stims/images/narwhal.png","unfamiliar","pretest","3","","","","","","","","","","","","","","","","",""
"coact-test","10","35191","0.0-10.0","p112","3","2","","","","","","37896.20266666667","","","[""stims/images/antelope.png"",""stims/images/tiger.png"",""stims/images/jaguar.png"",""stims/images/turtle.png"",""stims/images/lynx.png"",""stims/images/porcupine.png"",""stims/images/echidna.png"",""stims/images/narwhal.png""]","narwhal","","unfamiliar","pretest","3","stims/audio/wheres_narwhal.wav","7","stims/images/narwhal.png","1","","","","","","","","","","","","",""
"coact-test-prompt","11","36792","0.0-11.0","p112","3","2","","","","","","1600","","","[""stims/images/antelope.png"",""stims/images/tiger.png"",""stims/images/jaguar.png"",""stims/images/echidna.png"",""stims/images/narwhal.png"",""stims/images/porcupine.png"",""stims/images/turtle.png"",""stims/images/lynx.png""]","turtle","stims/images/turtle.png","familiar","pretest","3","","","","","","","","","","","","","","","","",""
"coact-test","12","42846","0.0-12.0","p112","3","2","","","","","","45544.25066666667","","","[""stims/images/antelope.png"",""stims/images/tiger.png"",""stims/images/jaguar.png"",""stims/images/echidna.png"",""stims/images/narwhal.png"",""stims/images/porcupine.png"",""stims/images/turtle.png"",""stims/images/lynx.png""]","turtle","","familiar","pretest","3","stims/audio/find_turtle.wav","6","stims/images/turtle.png","1","","","","","","","","","","","","",""
"coact-test-prompt","13","43668","0.0-13.0","p112","3","2","","","","","","821","","","[""stims/images/narwhal.png"",""stims/images/echidna.png"",""stims/images/porcupine.png"",""stims/images/turtle.png"",""stims/images/jaguar.png"",""stims/images/antelope.png"",""stims/images/tiger.png"",""stims/images/lynx.png""]","tiger","stims/images/tiger.png","familiar","pretest","3","","","","","","","","","","","","","","","","",""
"coact-test","14","48199","0.0-14.0","p112","3","2","","","","","","50889.37333333334","","","[""stims/images/narwhal.png"",""stims/images/echidna.png"",""stims/images/porcupine.png"",""stims/images/turtle.png"",""stims/images/jaguar.png"",""stims/images/antelope.png"",""stims/images/tiger.png"",""stims/images/lynx.png""]","tiger","","familiar","pretest","3","stims/audio/find_tiger.wav","7","stims/images/lynx.png","0","","","","","","","","","","","","",""
"coact-test-prompt","15","50092","0.0-15.0","p112","3","2","","","","","","1891","","","[""stims/images/narwhal.png"",""stims/images/antelope.png"",""stims/images/echidna.png"",""stims/images/porcupine.png"",""stims/images/tiger.png"",""stims/images/turtle.png"",""stims/images/jaguar.png"",""stims/images/lynx.png""]","echidna","stims/images/echidna.png","unfamiliar","pretest","3","","","","","","","","","","","","","","","","",""
"coact-test","16","55637","0.0-16.0","p112","3","2","","","","","","58320.94933333333","","","[""stims/images/narwhal.png"",""stims/images/antelope.png"",""stims/images/echidna.png"",""stims/images/porcupine.png"",""stims/images/tiger.png"",""stims/images/turtle.png"",""stims/images/jaguar.png"",""stims/images/lynx.png""]","echidna","","unfamiliar","pretest","3","stims/audio/find_echidna.wav","2","stims/images/echidna.png","1","","","","","","","","","","","","",""
"coact-test-prompt","17","363356","0.0-17.0","p112","3","2","","","","","","307732","","","[""stims/images/lynx.png"",""stims/images/narwhal.png"",""stims/images/antelope.png"",""stims/images/jaguar.png"",""stims/images/tiger.png"",""stims/images/turtle.png"",""stims/images/echidna.png"",""stims/images/porcupine.png""]","jaguar","stims/images/jaguar.png","somewhat familiar","pretest","3","","","","","","","","","","","","","","","","",""
"coact-test","18","373664","0.0-18.0","p112","3","2","","","","","","376048.6853333334","","","[""stims/images/lynx.png"",""stims/images/narwhal.png"",""stims/images/antelope.png"",""stims/images/jaguar.png"",""stims/images/tiger.png"",""stims/images/turtle.png"",""stims/images/echidna.png"",""stims/images/porcupine.png""]","jaguar","","somewhat familiar","pretest","3","stims/audio/wheres_jaguar.wav","1","stims/images/narwhal.png","0","","","","","","","","","","","","",""
"coact-test-prompt","19","375775","0.0-19.0","p112","3","2","","","","","","2109.000000000058","","","[""stims/images/porcupine.png"",""stims/images/lynx.png"",""stims/images/narwhal.png"",""stims/images/echidna.png"",""stims/images/jaguar.png"",""stims/images/tiger.png"",""stims/images/antelope.png"",""stims/images/turtle.png""]","lynx","stims/images/lynx.png","somewhat unfamiliar","pretest","3","","","","","","","","","","","","","","","","",""
"coact-test","20","381842","0.0-20.0","p112","3","2","","","","","","384216.26933333336","","","[""stims/images/porcupine.png"",""stims/images/lynx.png"",""stims/images/narwhal.png"",""stims/images/echidna.png"",""stims/images/jaguar.png"",""stims/images/tiger.png"",""stims/images/antelope.png"",""stims/images/turtle.png""]","lynx","","somewhat unfamiliar","pretest","3","stims/audio/find_lynx.wav","3","stims/images/echidna.png","0","","","","","","","","","","","","",""
"coact-test-prompt","21","383170","0.0-21.0","p112","3","2","","","","","","1328","","","[""stims/images/turtle.png"",""stims/images/antelope.png"",""stims/images/lynx.png"",""stims/images/narwhal.png"",""stims/images/porcupine.png"",""stims/images/echidna.png"",""stims/images/tiger.png"",""stims/images/jaguar.png""]","porcupine","stims/images/porcupine.png","somewhat familiar","pretest","3","","","","","","","","","","","","","","","","",""
"coact-test","22","394146","0.0-22.0","p112","3","2","","","","","","396511.87466666667","","","[""stims/images/turtle.png"",""stims/images/antelope.png"",""stims/images/lynx.png"",""stims/images/narwhal.png"",""stims/images/porcupine.png"",""stims/images/echidna.png"",""stims/images/tiger.png"",""stims/images/jaguar.png""]","porcupine","","somewhat familiar","pretest","3","stims/audio/wheres_porcupine.wav","3","stims/images/narwhal.png","0","","","","","","","","","","","","",""
"html-button-response","23","397177","0.0-23.0","p112","3","2","","","","","","3027.999999999942","","0","","","","","","","","","","","","","","","","","","","","","","",""
"coact-grid","24","408450","0.0-24.0","p112","3","2","","","","","","9962","","","[""stims/images/cow.png"",""stims/images/frog.png"",""stims/images/horse.png"",""stims/images/duck.png"",""stims/images/cat.png"",""stims/images/wolf.png"",""stims/images/butterfly.png"",""stims/images/squirrel.png""]","","","","","familiar","","","","","[2,5]","[""stims/images/horse.png"",""stims/images/wolf.png""]","[""horse"",""wolf""]","[""stims/audio/its_horse.wav"",""stims/audio/its_wolf.wav""]","left","[""stims/images/horse.png"",""stims/images/wolf.png""]","[""stims/audio/its_horse.wav"",""stims/audio/its_wolf.wav""]","[""horse"",""wolf""]","active","0","","",""
"coact-grid-choice","25","411773","0.0-25.0","p112","3","2","","","","","","3320.999999999942","","","[""stims/images/cow.png"",""stims/images/frog.png"",""stims/images/horse.png"",""stims/images/duck.png"",""stims/images/cat.png"",""stims/images/wolf.png"",""stims/images/butterfly.png"",""stims/images/squirrel.png""]","","","","","familiar","","","stims/images/wolf.png","","","[""stims/images/horse.png"",""stims/images/wolf.png""]","","","","[""stims/images/horse.png"",""stims/images/wolf.png""]","[""stims/audio/its_horse.wav"",""stims/audio/its_wolf.wav""]","[""horse"",""wolf""]","passive","0","1","stims/audio/its_wolf.wav","[""stims/images/horse.png"",""stims/images/wolf.png""]"
"coact-grid-choice-audio","26","414783","0.0-26.0","p112","3","2","","","","","","3000","","","[""stims/images/cow.png"",""stims/images/frog.png"",""stims/images/horse.png"",""stims/images/duck.png"",""stims/images/cat.png"",""stims/images/wolf.png"",""stims/images/butterfly.png"",""stims/images/squirrel.png""]","","","","","familiar","","","stims/images/wolf.png","","","","","","","","","","passive","0","","stims/audio/its_wolf.wav","[""stims/images/horse.png"",""stims/images/wolf.png""]"
"coact-grid","27","423191","0.0-27.0","p112","3","2","","","","","","7099","","","[""stims/images/turtle.png"",""stims/images/tiger.png"",""stims/images/antelope.png"",""stims/images/porcupine.png"",""stims/images/narwhal.png"",""stims/images/lynx.png"",""stims/images/echidna.png"",""stims/images/jaguar.png""]","","","","","3","","","","","[3,7]","[""stims/images/porcupine.png"",""stims/images/jaguar.png""]","[""porcupine"",""jaguar""]","[""stims/audio/its_porcupine.wav"",""stims/audio/its_jaguar.wav""]","right","[""stims/images/jaguar.png"",""stims/images/porcupine.png""]","[""stims/audio/its_jaguar.wav"",""stims/audio/its_porcupine.wav""]","[""jaguar"",""porcupine""]","active","0","","",""
"coact-grid-choice","28","425080","0.0-28.0","p112","3","2","","","","","","1888","","","[""stims/images/turtle.png"",""stims/images/tiger.png"",""stims/images/antelope.png"",""stims/images/porcupine.png"",""stims/images/narwhal.png"",""stims/images/lynx.png"",""stims/images/echidna.png"",""stims/images/jaguar.png""]","","","","","3","","","stims/images/porcupine.png","","","[""stims/images/porcupine.png"",""stims/images/jaguar.png""]","","","","[""stims/images/jaguar.png"",""stims/images/porcupine.png""]","[""stims/audio/its_jaguar.wav"",""stims/audio/its_porcupine.wav""]","[""jaguar"",""porcupine""]","passive","0","1","stims/audio/its_porcupine.wav","[""stims/images/jaguar.png"",""stims/images/porcupine.png""]"
"coact-grid-choice-audio","29","428089","0.0-29.0","p112","3","2","","","","","","3000","","","[""stims/images/turtle.png"",""stims/images/tiger.png"",""stims/images/antelope.png"",""stims/images/porcupine.png"",""stims/images/narwhal.png"",""stims/images/lynx.png"",""stims/images/echidna.png"",""stims/images/jaguar.png""]","","","","","3","","","stims/images/porcupine.png","","","","","","","","","","passive","0","","stims/audio/its_porcupine.wav","[""stims/images/jaguar.png"",""stims/images/porcupine.png""]"
"coact-grid","30","435328","0.0-30.0","p112","3","2","","","","","","5931.000000000058","","","[""stims/images/jaguar.png"",""stims/images/turtle.png"",""stims/images/lynx.png"",""stims/images/narwhal.png"",""stims/images/echidna.png"",""stims/images/tiger.png"",""stims/images/porcupine.png"",""stims/images/antelope.png""]","","","","","3","","","","","[7,3]","[""stims/images/antelope.png"",""stims/images/narwhal.png""]","[""antelope"",""narwhal""]","[""stims/audio/its_antelope.wav"",""stims/audio/its_narwhal.wav""]","left","[""stims/images/antelope.png"",""stims/images/narwhal.png""]","[""stims/audio/its_antelope.wav"",""stims/audio/its_narwhal.wav""]","[""antelope"",""narwhal""]","active","1","","",""
"coact-grid-choice","31","437454","0.0-31.0","p112","3","2","","","","","","2124","","","[""stims/images/jaguar.png"",""stims/images/turtle.png"",""stims/images/lynx.png"",""stims/images/narwhal.png"",""stims/images/echidna.png"",""stims/images/tiger.png"",""stims/images/porcupine.png"",""stims/images/antelope.png""]","","","","","3","","","stims/images/narwhal.png","","","[""stims/images/antelope.png"",""stims/images/narwhal.png""]","","","","[""stims/images/antelope.png"",""stims/images/narwhal.png""]","[""stims/audio/its_antelope.wav"",""stims/audio/its_narwhal.wav""]","[""antelope"",""narwhal""]","passive","1","1","stims/audio/its_narwhal.wav","[""stims/images/antelope.png"",""stims/images/narwhal.png""]"
"coact-grid-choice-audio","32","440463","0.0-32.0","p112","3","2","","","","","","3000","","","[""stims/images/jaguar.png"",""stims/images/turtle.png"",""stims/images/lynx.png"",""stims/images/narwhal.png"",""stims/images/echidna.png"",""stims/images/tiger.png"",""stims/images/porcupine.png"",""stims/images/antelope.png""]","","","","","3","","","stims/images/narwhal.png","","","","","","","","","","passive","1","","stims/audio/its_narwhal.wav","[""stims/images/antelope.png"",""stims/images/narwhal.png""]"
"coact-grid","33","447478","0.0-33.0","p112","3","2","","","","","","5708","","","[""stims/images/jaguar.png"",""stims/images/antelope.png"",""stims/images/tiger.png"",""stims/images/lynx.png"",""stims/images/narwhal.png"",""stims/images/turtle.png"",""stims/images/porcupine.png"",""stims/images/echidna.png""]","","","","","3","","","","","[5,2]","[""stims/images/turtle.png"",""stims/images/tiger.png""]","[""turtle"",""tiger""]","[""stims/audio/thats_turtle.wav"",""stims/audio/thats_tiger.wav""]","left","[""stims/images/turtle.png"",""stims/images/tiger.png""]","[""stims/audio/thats_turtle.wav"",""stims/audio/thats_tiger.wav""]","[""turtle"",""tiger""]","active","2","","",""
"coact-grid-choice","34","448643","0.0-34.0","p112","3","2","","","","","","1165","","","[""stims/images/jaguar.png"",""stims/images/antelope.png"",""stims/images/tiger.png"",""stims/images/lynx.png"",""stims/images/narwhal.png"",""stims/images/turtle.png"",""stims/images/porcupine.png"",""stims/images/echidna.png""]","","","","","3","","","stims/images/turtle.png","","","[""stims/images/turtle.png"",""stims/images/tiger.png""]","","","","[""stims/images/turtle.png"",""stims/images/tiger.png""]","[""stims/audio/thats_turtle.wav"",""stims/audio/thats_tiger.wav""]","[""turtle"",""tiger""]","passive","2","0","stims/audio/thats_turtle.wav","[""stims/images/turtle.png"",""stims/images/tiger.png""]"
"coact-grid-choice-audio","35","451654","0.0-35.0","p112","3","2","","","","","","3000","","","[""stims/images/jaguar.png"",""stims/images/antelope.png"",""stims/images/tiger.png"",""stims/images/lynx.png"",""stims/images/narwhal.png"",""stims/images/turtle.png"",""stims/images/porcupine.png"",""stims/images/echidna.png""]","","","","","3","","","stims/images/turtle.png","","","","","","","","","","passive","2","","stims/audio/thats_turtle.wav","[""stims/images/turtle.png"",""stims/images/tiger.png""]"
"coact-grid","36","457884","0.0-36.0","p112","3","2","","","","","","4924","","","[""stims/images/antelope.png"",""stims/images/narwhal.png"",""stims/images/porcupine.png"",""stims/images/lynx.png"",""stims/images/tiger.png"",""stims/images/jaguar.png"",""stims/images/echidna.png"",""stims/images/turtle.png""]","","","","","3","","","","","[3,0]","[""stims/images/lynx.png"",""stims/images/antelope.png""]","[""lynx"",""antelope""]","[""stims/audio/thats_lynx.wav"",""stims/audio/thats_antelope.wav""]","right","[""stims/images/antelope.png"",""stims/images/lynx.png""]","[""stims/audio/thats_antelope.wav"",""stims/audio/thats_lynx.wav""]","[""antelope"",""lynx""]","active","3","","",""
"coact-grid-choice","37","459416","0.0-37.0","p112","3","2","","","","","","1531","","","[""stims/images/antelope.png"",""stims/images/narwhal.png"",""stims/images/porcupine.png"",""stims/images/lynx.png"",""stims/images/tiger.png"",""stims/images/jaguar.png"",""stims/images/echidna.png"",""stims/images/turtle.png""]","","","","","3","","","stims/images/lynx.png","","","[""stims/images/lynx.png"",""stims/images/antelope.png""]","","","","[""stims/images/antelope.png"",""stims/images/lynx.png""]","[""stims/audio/thats_antelope.wav"",""stims/audio/thats_lynx.wav""]","[""antelope"",""lynx""]","passive","3","1","stims/audio/thats_lynx.wav","[""stims/images/antelope.png"",""stims/images/lynx.png""]"
"coact-grid-choice-audio","38","462425","0.0-38.0","p112","3","2","","","","","","3003","","","[""stims/images/antelope.png"",""stims/images/narwhal.png"",""stims/images/porcupine.png"",""stims/images/lynx.png"",""stims/images/tiger.png"",""stims/images/jaguar.png"",""stims/images/echidna.png"",""stims/images/turtle.png""]","","","","","3","","","stims/images/lynx.png","","","","","","","","","","passive","3","","stims/audio/thats_lynx.wav","[""stims/images/antelope.png"",""stims/images/lynx.png""]"
"coact-grid","39","470555","0.0-39.0","p112","3","2","","","","","","6825","","","[""stims/images/turtle.png"",""stims/images/tiger.png"",""stims/images/porcupine.png"",""stims/images/antelope.png"",""stims/images/lynx.png"",""stims/images/jaguar.png"",""stims/images/narwhal.png"",""stims/images/echidna.png""]","","","","","3","","","","","[7,5]","[""stims/images/echidna.png"",""stims/images/jaguar.png""]","[""echidna"",""jaguar""]","[""stims/audio/its_echidna.wav"",""stims/audio/its_jaguar.wav""]","right","[""stims/images/jaguar.png"",""stims/images/echidna.png""]","[""stims/audio/its_jaguar.wav"",""stims/audio/its_echidna.wav""]","[""jaguar"",""echidna""]","active","4","","",""
"coact-grid-choice","40","472358","0.0-40.0","p112","3","2","","","","","","1800.9999999999418","","","[""stims/images/turtle.png"",""stims/images/tiger.png"",""stims/images/porcupine.png"",""stims/images/antelope.png"",""stims/images/lynx.png"",""stims/images/jaguar.png"",""stims/images/narwhal.png"",""stims/images/echidna.png""]","","","","","3","","","stims/images/jaguar.png","","","[""stims/images/echidna.png"",""stims/images/jaguar.png""]","","","","[""stims/images/jaguar.png"",""stims/images/echidna.png""]","[""stims/audio/its_jaguar.wav"",""stims/audio/its_echidna.wav""]","[""jaguar"",""echidna""]","passive","4","0","stims/audio/its_jaguar.wav","[""stims/images/jaguar.png"",""stims/images/echidna.png""]"
"coact-grid-choice-audio","41","475370","0.0-41.0","p112","3","2","","","","","","3000","","","[""stims/images/turtle.png"",""stims/images/tiger.png"",""stims/images/porcupine.png"",""stims/images/antelope.png"",""stims/images/lynx.png"",""stims/images/jaguar.png"",""stims/images/narwhal.png"",""stims/images/echidna.png""]","","","","","3","","","stims/images/jaguar.png","","","","","","","","","","passive","4","","stims/audio/its_jaguar.wav","[""stims/images/jaguar.png"",""stims/images/echidna.png""]"
"coact-grid","42","483383","0.0-42.0","p112","3","2","","","","","","6706.999999999942","","","[""stims/images/tiger.png"",""stims/images/jaguar.png"",""stims/images/porcupine.png"",""stims/images/lynx.png"",""stims/images/narwhal.png"",""stims/images/echidna.png"",""stims/images/antelope.png"",""stims/images/turtle.png""]","","","","","3","","","","","[6,1]","[""stims/images/antelope.png"",""stims/images/jaguar.png""]","[""antelope"",""jaguar""]","[""stims/audio/thats_antelope.wav"",""stims/audio/thats_jaguar.wav""]","left","[""stims/images/antelope.png"",""stims/images/jaguar.png""]","[""stims/audio/thats_antelope.wav"",""stims/audio/thats_jaguar.wav""]","[""antelope"",""jaguar""]","active","5","","",""
"coact-grid-choice","43","485032","0.0-43.0","p112","3","2","","","","","","1648.0000000000582","","","[""stims/images/tiger.png"",""stims/images/jaguar.png"",""stims/images/porcupine.png"",""stims/images/lynx.png"",""stims/images/narwhal.png"",""stims/images/echidna.png"",""stims/images/antelope.png"",""stims/images/turtle.png""]","","","","","3","","","stims/images/antelope.png","","","[""stims/images/antelope.png"",""stims/images/jaguar.png""]","","","","[""stims/images/antelope.png"",""stims/images/jaguar.png""]","[""stims/audio/thats_antelope.wav"",""stims/audio/thats_jaguar.wav""]","[""antelope"",""jaguar""]","passive","5","0","stims/audio/thats_antelope.wav","[""stims/images/antelope.png"",""stims/images/jaguar.png""]"
"coact-grid-choice-audio","44","488041","0.0-44.0","p112","3","2","","","","","","3000","","","[""stims/images/tiger.png"",""stims/images/jaguar.png"",""stims/images/porcupine.png"",""stims/images/lynx.png"",""stims/images/narwhal.png"",""stims/images/echidna.png"",""stims/images/antelope.png"",""stims/images/turtle.png""]","","","","","3","","","stims/images/antelope.png","","","","","","","","","","passive","5","","stims/audio/thats_antelope.wav","[""stims/images/antelope.png"",""stims/images/jaguar.png""]"
"html-button-response","45","495217","0.0-45.0","p112","3","2","","","","","","7171","","0","","","","","","","","","","","","","","","","","","","","","","",""
"coact-test-prompt","46","497479","0.0-46.0","p112","3","2","","","","","","2260.000000000058","","","[""stims/images/frog.png"",""stims/images/duck.png"",""stims/images/horse.png"",""stims/images/cow.png"",""stims/images/squirrel.png"",""stims/images/butterfly.png"",""stims/images/wolf.png"",""stims/images/cat.png""]","butterfly","stims/images/butterfly.png","familiar","practice_posttest","familiar","","","","","","","","","","","","","","","","",""
"coact-test","47","501415","0.0-47.0","p112","3","2","","","","","","503672.56533333333","","","[""stims/images/frog.png"",""stims/images/duck.png"",""stims/images/horse.png"",""stims/images/cow.png"",""stims/images/squirrel.png"",""stims/images/butterfly.png"",""stims/images/wolf.png"",""stims/images/cat.png""]","butterfly","","familiar","practice_posttest","familiar","stims/audio/find_butterfly.wav","5","stims/images/butterfly.png","1","","","","","","","","","","","","",""
"coact-test-prompt","48","502340","0.0-48.0","p112","3","2","","","","","","923","","","[""stims/images/butterfly.png"",""stims/images/duck.png"",""stims/images/horse.png"",""stims/images/frog.png"",""stims/images/cow.png"",""stims/images/cat.png"",""stims/images/squirrel.png"",""stims/images/wolf.png""]","wolf","stims/images/wolf.png","familiar","practice_posttest","familiar","","","","","","","","","","","","","","","","",""
"coact-test","49","506668","0.0-49.0","p112","3","2","","","","","","508920.704","","","[""stims/images/butterfly.png"",""stims/images/duck.png"",""stims/images/horse.png"",""stims/images/frog.png"",""stims/images/cow.png"",""stims/images/cat.png"",""stims/images/squirrel.png"",""stims/images/wolf.png""]","wolf","","familiar","practice_posttest","familiar","stims/audio/find_wolf.wav","6","stims/images/squirrel.png","0","","","","","","","","","","","","",""
"coact-test-prompt","50","509127","0.0-50.0","p112","3","2","","","","","","2458.000000000058","","","[""stims/images/antelope.png"",""stims/images/echidna.png"",""stims/images/tiger.png"",""stims/images/jaguar.png"",""stims/images/turtle.png"",""stims/images/narwhal.png"",""stims/images/porcupine.png"",""stims/images/lynx.png""]","porcupine","stims/images/porcupine.png","somewhat familiar","posttest","3","","","","","","","","","","","","","","","","",""
"coact-test","51","516291","0.0-51.0","p112","3","2","","","","","","518536.9173333334","","","[""stims/images/antelope.png"",""stims/images/echidna.png"",""stims/images/tiger.png"",""stims/images/jaguar.png"",""stims/images/turtle.png"",""stims/images/narwhal.png"",""stims/images/porcupine.png"",""stims/images/lynx.png""]","porcupine","","somewhat familiar","posttest","3","stims/audio/wheres_porcupine.wav","1","stims/images/echidna.png","0","","","","","","","","","","","","",""
"coact-test-prompt","52","518297","0.0-52.0","p112","3","2","","","","","","2005","","","[""stims/images/antelope.png"",""stims/images/turtle.png"",""stims/images/porcupine.png"",""stims/images/jaguar.png"",""stims/images/tiger.png"",""stims/images/lynx.png"",""stims/images/echidna.png"",""stims/images/narwhal.png""]","tiger","stims/images/tiger.png","familiar","posttest","3","","","","","","","","","","","","","","","","",""
"coact-test","53","522101","0.0-53.0","p112","3","2","","","","","","524337.7466666667","","","[""stims/images/antelope.png"",""stims/images/turtle.png"",""stims/images/porcupine.png"",""stims/images/jaguar.png"",""stims/images/tiger.png"",""stims/images/lynx.png"",""stims/images/echidna.png"",""stims/images/narwhal.png""]","tiger","","familiar","posttest","3","stims/audio/find_tiger.wav","4","stims/images/tiger.png","1","","","","","","","","","","","","",""
"coact-test-prompt","54","522460","0.0-54.0","p112","3","2","","","","","","358","","","[""stims/images/turtle.png"",""stims/images/lynx.png"",""stims/images/porcupine.png"",""stims/images/tiger.png"",""stims/images/narwhal.png"",""stims/images/antelope.png"",""stims/images/echidna.png"",""stims/images/jaguar.png""]","turtle","stims/images/turtle.png","familiar","posttest","3","","","","","","","","","","","","","","","","",""
"coact-test","55","526105","0.0-55.0","p112","3","2","","","","","","528337.584","","","[""stims/images/turtle.png"",""stims/images/lynx.png"",""stims/images/porcupine.png"",""stims/images/tiger.png"",""stims/images/narwhal.png"",""stims/images/antelope.png"",""stims/images/echidna.png"",""stims/images/jaguar.png""]","turtle","","familiar","posttest","3","stims/audio/wheres_turtle.wav","0","stims/images/turtle.png","1","","","","","","","","","","","","",""
"coact-test-prompt","56","526729","0.0-56.0","p112","3","2","","","","","","623","","","[""stims/images/echidna.png"",""stims/images/jaguar.png"",""stims/images/narwhal.png"",""stims/images/lynx.png"",""stims/images/turtle.png"",""stims/images/tiger.png"",""stims/images/antelope.png"",""stims/images/porcupine.png""]","narwhal","stims/images/narwhal.png","unfamiliar","posttest","3","","","","","","","","","","","","","","","","",""
"coact-test","57","530348","0.0-57.0","p112","3","2","","","","","","532577.3146666667","","","[""stims/images/echidna.png"",""stims/images/jaguar.png"",""stims/images/narwhal.png"",""stims/images/lynx.png"",""stims/images/turtle.png"",""stims/images/tiger.png"",""stims/images/antelope.png"",""stims/images/porcupine.png""]","narwhal","","unfamiliar","posttest","3","stims/audio/wheres_narwhal.wav","2","stims/images/narwhal.png","1","","","","","","","","","","","","",""
"coact-test-prompt","58","531080","0.0-58.0","p112","3","2","","","","","","730","","","[""stims/images/lynx.png"",""stims/images/tiger.png"",""stims/images/antelope.png"",""stims/images/turtle.png"",""stims/images/echidna.png"",""stims/images/jaguar.png"",""stims/images/porcupine.png"",""stims/images/narwhal.png""]","jaguar","stims/images/jaguar.png","somewhat familiar","posttest","3","","","","","","","","","","","","","","","","",""
"coact-test","59","543689","0.0-59.0","p112","3","2","","","","","","545914.9653333334","","","[""stims/images/lynx.png"",""stims/images/tiger.png"",""stims/images/antelope.png"",""stims/images/turtle.png"",""stims/images/echidna.png"",""stims/images/jaguar.png"",""stims/images/porcupine.png"",""stims/images/narwhal.png""]","jaguar","","somewhat familiar","posttest","3","stims/audio/wheres_jaguar.wav","2","stims/images/antelope.png","0","","","","","","","","","","","","",""
"coact-test-prompt","60","544321","0.0-60.0","p112","3","2","","","","","","630","","","[""stims/images/turtle.png"",""stims/images/tiger.png"",""stims/images/narwhal.png"",""stims/images/echidna.png"",""stims/images/lynx.png"",""stims/images/jaguar.png"",""stims/images/porcupine.png"",""stims/images/antelope.png""]","echidna","stims/images/echidna.png","unfamiliar","posttest","3","","","","","","","","","","","","","","","","",""
"coact-test","61","548665","0.0-61.0","p112","3","2","","","","","","550877.7253333334","","","[""stims/images/turtle.png"",""stims/images/tiger.png"",""stims/images/narwhal.png"",""stims/images/echidna.png"",""stims/images/lynx.png"",""stims/images/jaguar.png"",""stims/images/porcupine.png"",""stims/images/antelope.png""]","echidna","","unfamiliar","posttest","3","stims/audio/find_echidna.wav","6","stims/images/porcupine.png","0","","","","","","","","","","","","",""
"coact-test-prompt","62","549990","0.0-62.0","p112","3","2","","","","","","1324","","","[""stims/images/lynx.png"",""stims/images/jaguar.png"",""stims/images/tiger.png"",""stims/images/turtle.png"",""stims/images/narwhal.png"",""stims/images/porcupine.png"",""stims/images/antelope.png"",""stims/images/echidna.png""]","lynx","stims/images/lynx.png","somewhat unfamiliar","posttest","3","","","","","","","","","","","","","","","","",""
"coact-test","63","554762","0.0-63.0","p112","3","2","","","","","","556969.056","","","[""stims/images/lynx.png"",""stims/images/jaguar.png"",""stims/images/tiger.png"",""stims/images/turtle.png"",""stims/images/narwhal.png"",""stims/images/porcupine.png"",""stims/images/antelope.png"",""stims/images/echidna.png""]","lynx","","somewhat unfamiliar","posttest","3","stims/audio/find_lynx.wav","1","stims/images/jaguar.png","0","","","","","","","","","","","","",""
"coact-test-prompt","64","556300","0.0-64.0","p112","3","2","","","","","","1537","","","[""stims/images/jaguar.png"",""stims/images/lynx.png"",""stims/images/tiger.png"",""stims/images/echidna.png"",""stims/images/antelope.png"",""stims/images/porcupine.png"",""stims/images/narwhal.png"",""stims/images/turtle.png""]","antelope","stims/images/antelope.png","somewhat unfamiliar","posttest","3","","","","","","","","","","","","","","","","",""
"coact-test","65","560940","0.0-65.0","p112","3","2","","","","","","563140.744","","","[""stims/images/jaguar.png"",""stims/images/lynx.png"",""stims/images/tiger.png"",""stims/images/echidna.png"",""stims/images/antelope.png"",""stims/images/porcupine.png"",""stims/images/narwhal.png"",""stims/images/turtle.png""]","antelope","","somewhat unfamiliar","posttest","3","stims/audio/find_antelope.wav","4","stims/images/antelope.png","1","","","","","","","","","","","","",""
