"trial_type","trial_index","time_elapsed","internal_node_id","subject_id","round_name","round_index","success","timeout","failed_images","failed_audio","failed_video","rt","stimulus","response","images","target","target_image","target_type","round_type","set","test_audio","choice","chosen_image","correct","choices","chosen_images","chosen_items","chosen_audio_items","first_choice_location","chosen_images_in_order","chosen_audio_in_order","chosen_items_in_order","condition","sample_num","chosen_index","chosen_audio","central_images"
"pavlovia","0","3","0.0-0.0","p019","4","3","","","","","","","","","","","","","","","","","","","","","","","","","","","","","","",""
"preload","1","135","0.0-1.0","p019","4","3","true","false","[]","[]","[]","","","","","","","","","","","","","","","","","","","","","","","","","",""
"html-button-response","2","566","0.0-2.0","p019","4","3","","","","","","430","","0","","","","","","","","","","","","","","","","","","","","","","",""
"coact-test-prompt","3","3679","0.0-3.0","p019","4","3","","","","","","3111","","","[""stims/images/cat.png"",""stims/images/butterfly.png"",""stims/images/horse.png"",""stims/images/wolf.png"",""stims/images/squirrel.png"",""stims/images/cow.png"",""stims/images/frog.png"",""stims/images/duck.png""]","cat","stims/images/cat.png","familiar","practice_pretest","familiar","","","","","","","","","","","","","","","","",""
"coact-test","4","7179","0.0-4.0","p019","4","3","","","","","","10695.389333333333","","","[""stims/images/cat.png"",""stims/images/butterfly.png"",""stims/images/horse.png"",""stims/images/wolf.png"",""stims/images/squirrel.png"",""stims/images/cow.png"",""stims/images/frog.png"",""stims/images/duck.png""]","cat","","familiar","practice_pretest","familiar","stims/audio/wheres_cat.wav","0","stims/images/cat.png","1","","","","","","","","","","","","",""
"coact-test-prompt","5","12717","0.0-5.0","p019","4","3","","","","","","5537","","","[""stims/images/duck.png"",""stims/images/horse.png"",""stims/images/frog.png"",""stims/images/butterfly.png"",""stims/images/cat.png"",""stims/images/squirrel.png"",""stims/images/cow.png"",""stims/images/wolf.png""]","squirrel","stims/images/squirrel.png","familiar","practice_pretest","familiar","","","","","","","","","","","","","","","","",""
"coact-test","6","17293","0.0-6.0","p019","4","3","","","","","","20800.357333333333","","","[""stims/images/duck.png"",""stims/images/horse.png"",""stims/images/frog.png"",""stims/images/butterfly.png"",""stims/images/cat.png"",""stims/images/squirrel.png"",""stims/images/cow.png"",""stims/images/wolf.png""]","squirrel","","familiar","practice_pretest","familiar","stims/audio/wheres_squirrel.wav","5","stims/images/squirrel.png","1","","","","","","","","","","","","",""
"coact-test-prompt","7","24585","0.0-7.0","p019","4","3","","","","","","7291","","","[""stims/images/wombat.png"",""stims/images/zebra.png"",""stims/images/koala.png"",""stims/images/antelope.png"",""stims/images/alpaca.png"",""stims/images/porcupine.png"",""stims/images/tarsier.png"",""stims/images/dog.png""]","wombat","stims/images/wombat.png","unfamiliar","pretest","4","","","","","","","","","","","","","","","","",""
"coact-test","8","33312","0.0-8.0","p019","4","3","","","","","","36807.488","","","[""stims/images/wombat.png"",""stims/images/zebra.png"",""stims/images/koala.png"",""stims/images/antelope.png"",""stims/images/alpaca.png"",""stims/images/porcupine.png"",""stims/images/tarsier.png"",""stims/images/dog.png""]","wombat","","unfamiliar","pretest","4","stims/audio/wheres_wombat.wav","6","stims/images/tarsier.png","0","","","","","","","","","","","","",""
"coact-test-prompt","9","36404","0.0-9.0","p019","4","3","","","","","","3090.0000000000073","","","[""stims/images/dog.png"",""stims/images/porcupine.png"",""stims/images/wombat.png"",""stims/images/antelope.png"",""stims/images/tarsier.png"",""stims/images/koala.png"",""stims/images/zebra.png"",""stims/images/alpaca.png""]","alpaca","stims/images/alpaca.png","somewhat unfamiliar","pretest","4","","","","","","","","","","","","","","","","",""
"coact-test","10","51006","0.0-10.0","p019","4","3","","","","","","54488.66933333333","","","[""stims/images/dog.png"",""stims/images/porcupine.png"",""stims/images/wombat.png"",""stims/images/antelope.png"",""stims/images/tarsier.png"",""stims/images/koala.png"",""stims/images/zebra.png"",""stims/images/alpaca.png""]","alpaca","","somewhat unfamiliar","pretest","4","stims/audio/find_alpaca.wav","4","stims/images/tarsier.png","0","","","","","","","","","","","","",""
"coact-test-prompt","11","52723","0.0-11.0","p019","4","3","","","","","","1716","","","[""stims/images/zebra.png"",""stims/images/koala.png"",""stims/images/antelope.png"",""stims/images/wombat.png"",""stims/images/tarsier.png"",""stims/images/dog.png"",""stims/images/alpaca.png"",""stims/images/porcupine.png""]","porcupine","stims/images/porcupine.png","somewhat familiar","pretest","4","","","","","","","","","","","","","","","","",""
"coact-test","12","58578","0.0-12.0","p019","4","3","","","","","","62045.352","","","[""stims/images/zebra.png"",""stims/images/koala.png"",""stims/images/antelope.png"",""stims/images/wombat.png"",""stims/images/tarsier.png"",""stims/images/dog.png"",""stims/images/alpaca.png"",""stims/images/porcupine.png""]","porcupine","","somewhat familiar","pretest","4","stims/audio/wheres_porcupine.wav","7","stims/images/porcupine.png","1","","","","","","","","","","","","",""
"coact-test-prompt","13","61639","0.0-13.0","p019","4","3","","","","","","3060","","","[""stims/images/dog.png"",""stims/images/porcupine.png"",""stims/images/wombat.png"",""stims/images/zebra.png"",""stims/images/alpaca.png"",""stims/images/koala.png"",""stims/images/antelope.png"",""stims/images/tarsier.png""]","antelope","stims/images/antelope.png","somewhat unfamiliar","pretest","4","","","","","","","","","","","","","","","","",""
"coact-test","14","71929","0.0-14.0","p019","4","3","","","","","","75386.43733333335","","","[""stims/images/dog.png"",""stims/images/porcupine.png"",""stims/images/wombat.png"",""stims/images/zebra.png"",""stims/images/alpaca.png"",""stims/images/koala.png"",""stims/images/antelope.png"",""stims/images/tarsier.png""]","antelope","","somewhat unfamiliar","pretest","4","stims/audio/find_antelope.wav","6","stims/images/antelope.png","1","","","","","","","","","","","","",""
"coact-test-prompt","15","78566","0.0-15.0","p019","4","3","","","","","","6635.999999999985","","","[""stims/images/koala.png"",""stims/images/zebra.png"",""stims/images/wombat.png"",""stims/images/antelope.png"",""stims/images/porcupine.png"",""stims/images/tarsier.png"",""stims/images/alpaca.png"",""stims/images/dog.png""]","koala","stims/images/koala.png","somewhat familiar","pretest","4","","","","","","","","","","","","","","","","",""
"coact-test","16","84896","0.0-16.0","p019","4","3","","","","","","88336.512","","","[""stims/images/koala.png"",""stims/images/zebra.png"",""stims/images/wombat.png"",""stims/images/antelope.png"",""stims/images/porcupine.png"",""stims/images/tarsier.png"",""stims/images/alpaca.png"",""stims/images/dog.png""]","koala","","somewhat familiar","pretest","4","stims/audio/find_koala.wav","0","stims/images/koala.png","1","","","","","","","","","","","","",""
"coact-test-prompt","17","87963","0.0-17.0","p019","4","3","","","","","","3066","","","[""stims/images/zebra.png"",""stims/images/alpaca.png"",""stims/images/tarsier.png"",""stims/images/dog.png"",""stims/images/koala.png"",""stims/images/antelope.png"",""stims/images/porcupine.png"",""stims/images/wombat.png""]","zebra","stims/images/zebra.png","familiar","pretest","4","","","","","","","","","","","","","","","","",""
"coact-test","18","90757","0.0-18.0","p019","4","3","","","","","","94189.11466666666","","","[""stims/images/zebra.png"",""stims/images/alpaca.png"",""stims/images/tarsier.png"",""stims/images/dog.png"",""stims/images/koala.png"",""stims/images/antelope.png"",""stims/images/porcupine.png"",""stims/images/wombat.png""]","zebra","","familiar","pretest","4","stims/audio/wheres_zebra.wav","0","stims/images/zebra.png","1","","","","","","","","","","","","",""
"coact-test-prompt","19","93135","0.0-19.0","p019","4","3","","","","","","2377","","","[""stims/images/alpaca.png"",""stims/images/zebra.png"",""stims/images/dog.png"",""stims/images/porcupine.png"",""stims/images/antelope.png"",""stims/images/wombat.png"",""stims/images/koala.png"",""stims/images/tarsier.png""]","tarsier","stims/images/tarsier.png","unfamiliar","pretest","4","","","","","","","","","","","","","","","","",""
"coact-test","20","106211","0.0-20.0","p019","4","3","","","","","","109709.944","","","[""stims/images/alpaca.png"",""stims/images/zebra.png"",""stims/images/dog.png"",""stims/images/porcupine.png"",""stims/images/antelope.png"",""stims/images/wombat.png"",""stims/images/koala.png"",""stims/images/tarsier.png""]","tarsier","","unfamiliar","pretest","4","stims/audio/find_tarsier.wav","0","stims/images/alpaca.png","0","","","","","","","","","","","","",""
"coact-test-prompt","21","107421","0.0-21.0","p019","4","3","","","","","","1209","","","[""stims/images/tarsier.png"",""stims/images/koala.png"",""stims/images/porcupine.png"",""stims/images/antelope.png"",""stims/images/wombat.png"",""stims/images/zebra.png"",""stims/images/alpaca.png"",""stims/images/dog.png""]","dog","stims/images/dog.png","familiar","pretest","4","","","","","","","","","","","","","","","","",""
"coact-test","22","110730","0.0-22.0","p019","4","3","","","","","","114214.584","","","[""stims/images/tarsier.png"",""stims/images/koala.png"",""stims/images/porcupine.png"",""stims/images/antelope.png"",""stims/images/wombat.png"",""stims/images/zebra.png"",""stims/images/alpaca.png"",""stims/images/dog.png""]","dog","","familiar","pretest","4","stims/audio/wheres_dog.wav","7","stims/images/dog.png","1","","","","","","","","","","","","",""
"html-button-response","23","115357","0.0-23.0","p019","4","3","","","","","","4625.999999999985","","0","","","","","","","","","","","","","","","","","","","","","","",""
"coact-grid","24","128838","0.0-24.0","p019","4","3","","","","","","12172","","","[""stims/images/butterfly.png"",""stims/images/cow.png"",""stims/images/duck.png"",""stims/images/frog.png"",""stims/images/cat.png"",""stims/images/horse.png"",""stims/images/squirrel.png"",""stims/images/wolf.png""]","","","","","familiar","","","","","[7,6]","[""stims/images/wolf.png"",""stims/images/squirrel.png""]","[""wolf"",""squirrel""]","[""stims/audio/thats_wolf.wav"",""stims/audio/thats_squirrel.wav""]","right","[""stims/images/squirrel.png"",""stims/images/wolf.png""]","[""stims/audio/thats_squirrel.wav"",""stims/audio/thats_wolf.wav""]","[""squirrel"",""wolf""]","active","0","","",""
"coact-grid-choice","25","131894","0.0-25.0","p019","4","3","","","","","","3053","","","[""stims/images/butterfly.png"",""stims/images/cow.png"",""stims/images/duck.png"",""stims/images/frog.png"",""stims/images/cat.png"",""stims/images/horse.png"",""stims/images/squirrel.png"",""stims/images/wolf.png""]","","","","","familiar","","","stims/images/wolf.png","","","[""stims/images/wolf.png"",""stims/images/squirrel.png""]","","","","[""stims/images/squirrel.png"",""stims/images/wolf.png""]","[""stims/audio/thats_squirrel.wav"",""stims/audio/thats_wolf.wav""]","[""squirrel"",""wolf""]","passive","0","1","stims/audio/thats_wolf.wav","[""stims/images/squirrel.png"",""stims/images/wolf.png""]"
"coact-grid-choice-audio","26","134910","0.0-26.0","p019","4","3","","","","","","3000","","","[""stims/images/butterfly.png"",""stims/images/cow.png"",""stims/images/duck.png"",""stims/images/frog.png"",""stims/images/cat.png"",""stims/images/horse.png"",""stims/images/squirrel.png"",""stims/images/wolf.png""]","","","","","familiar","","","stims/images/wolf.png","","","","","","","","","","passive","0","","stims/audio/thats_wolf.wav","[""stims/images/squirrel.png"",""stims/images/wolf.png""]"
"coact-grid","27","143881","0.0-27.0","p019","4","3","","","","","","7660","","","[""stims/images/antelope.png"",""stims/images/dog.png"",""stims/images/koala.png"",""stims/images/zebra.png"",""stims/images/wombat.png"",""stims/images/alpaca.png"",""stims/images/tarsier.png"",""stims/images/porcupine.png""]","","","","","4","","","","","[6,3]","[""stims/images/tarsier.png"",""stims/images/zebra.png""]","[""tarsier"",""zebra""]","[""stims/audio/thats_tarsier.wav"",""stims/audio/thats_zebra.wav""]","right","[""stims/images/zebra.png"",""stims/images/tarsier.png""]","[""stims/audio/thats_zebra.wav"",""stims/audio/thats_tarsier.wav""]","[""zebra"",""tarsier""]","active","0","","",""
"coact-grid-choice","28","147019","0.0-28.0","p019","4","3","","","","","","3136","","","[""stims/images/antelope.png"",""stims/images/dog.png"",""stims/images/koala.png"",""stims/images/zebra.png"",""stims/images/wombat.png"",""stims/images/alpaca.png"",""stims/images/tarsier.png"",""stims/images/porcupine.png""]","","","","","4","","","stims/images/zebra.png","","","[""stims/images/tarsier.png"",""stims/images/zebra.png""]","","","","[""stims/images/zebra.png"",""stims/images/tarsier.png""]","[""stims/audio/thats_zebra.wav"",""stims/audio/thats_tarsier.wav""]","[""zebra"",""tarsier""]","passive","0","0","stims/audio/thats_zebra.wav","[""stims/images/zebra.png"",""stims/images/tarsier.png""]"
"coact-grid-choice-audio","29","150028","0.0-29.0","p019","4","3","","","","","","3000","","","[""stims/images/antelope.png"",""stims/images/dog.png"",""stims/images/koala.png"",""stims/images/zebra.png"",""stims/images/wombat.png"",""stims/images/alpaca.png"",""stims/images/tarsier.png"",""stims/images/porcupine.png""]","","","","","4","","","stims/images/zebra.png","","","","","","","","","","passive","0","","stims/audio/thats_zebra.wav","[""stims/images/zebra.png"",""stims/images/tarsier.png""]"
"coact-grid","30","158111","0.0-30.0","p019","4","3","","","","","","6778","","","[""stims/images/porcupine.png"",""stims/images/tarsier.png"",""stims/images/wombat.png"",""stims/images/dog.png"",""stims/images/zebra.png"",""stims/images/alpaca.png"",""stims/images/koala.png"",""stims/images/antelope.png""]","","","","","4","","","","","[1,5]","[""stims/images/tarsier.png"",""stims/images/alpaca.png""]","[""tarsier"",""alpaca""]","[""stims/audio/thats_tarsier.wav"",""stims/audio/thats_alpaca.wav""]","left","[""stims/images/tarsier.png"",""stims/images/alpaca.png""]","[""stims/audio/thats_tarsier.wav"",""stims/audio/thats_alpaca.wav""]","[""tarsier"",""alpaca""]","active","1","","",""
"coact-grid-choice","31","162895","0.0-31.0","p019","4","3","","","","","","4782","","","[""stims/images/porcupine.png"",""stims/images/tarsier.png"",""stims/images/wombat.png"",""stims/images/dog.png"",""stims/images/zebra.png"",""stims/images/alpaca.png"",""stims/images/koala.png"",""stims/images/antelope.png""]","","","","","4","","","stims/images/tarsier.png","","","[""stims/images/tarsier.png"",""stims/images/alpaca.png""]","","","","[""stims/images/tarsier.png"",""stims/images/alpaca.png""]","[""stims/audio/thats_tarsier.wav"",""stims/audio/thats_alpaca.wav""]","[""tarsier"",""alpaca""]","passive","1","0","stims/audio/thats_tarsier.wav","[""stims/images/tarsier.png"",""stims/images/alpaca.png""]"
"coact-grid-choice-audio","32","165903","0.0-32.0","p019","4","3","","","","","","3003","","","[""stims/images/porcupine.png"",""stims/images/tarsier.png"",""stims/images/wombat.png"",""stims/images/dog.png"",""stims/images/zebra.png"",""stims/images/alpaca.png"",""stims/images/koala.png"",""stims/images/antelope.png""]","","","","","4","","","stims/images/tarsier.png","","","","","","","","","","passive","1","","stims/audio/thats_tarsier.wav","[""stims/images/tarsier.png"",""stims/images/alpaca.png""]"
"coact-grid","33","176715","0.0-33.0","p019","4","3","","","","","","9505","","","[""stims/images/tarsier.png"",""stims/images/zebra.png"",""stims/images/porcupine.png"",""stims/images/wombat.png"",""stims/images/antelope.png"",""stims/images/dog.png"",""stims/images/alpaca.png"",""stims/images/koala.png""]","","","","","4","","","","","[3,6]","[""stims/images/wombat.png"",""stims/images/alpaca.png""]","[""wombat"",""alpaca""]","[""stims/audio/its_wombat.wav"",""stims/audio/its_alpaca.wav""]","right","[""stims/images/alpaca.png"",""stims/images/wombat.png""]","[""stims/audio/its_alpaca.wav"",""stims/audio/its_wombat.wav""]","[""alpaca"",""wombat""]","active","2","","",""
"coact-grid-choice","34","180588","0.0-34.0","p019","4","3","","","","","","3871","","","[""stims/images/tarsier.png"",""stims/images/zebra.png"",""stims/images/porcupine.png"",""stims/images/wombat.png"",""stims/images/antelope.png"",""stims/images/dog.png"",""stims/images/alpaca.png"",""stims/images/koala.png""]","","","","","4","","","stims/images/alpaca.png","","","[""stims/images/wombat.png"",""stims/images/alpaca.png""]","","","","[""stims/images/alpaca.png"",""stims/images/wombat.png""]","[""stims/audio/its_alpaca.wav"",""stims/audio/its_wombat.wav""]","[""alpaca"",""wombat""]","passive","2","0","stims/audio/its_alpaca.wav","[""stims/images/alpaca.png"",""stims/images/wombat.png""]"
"coact-grid-choice-audio","35","183597","0.0-35.0","p019","4","3","","","","","","3003","","","[""stims/images/tarsier.png"",""stims/images/zebra.png"",""stims/images/porcupine.png"",""stims/images/wombat.png"",""stims/images/antelope.png"",""stims/images/dog.png"",""stims/images/alpaca.png"",""stims/images/koala.png""]","","","","","4","","","stims/images/alpaca.png","","","","","","","","","","passive","2","","stims/audio/its_alpaca.wav","[""stims/images/alpaca.png"",""stims/images/wombat.png""]"
"coact-grid","36","193175","0.0-36.0","p019","4","3","","","","","","8270","","","[""stims/images/tarsier.png"",""stims/images/koala.png"",""stims/images/wombat.png"",""stims/images/zebra.png"",""stims/images/dog.png"",""stims/images/porcupine.png"",""stims/images/alpaca.png"",""stims/images/antelope.png""]","","","","","4","","","","","[2,7]","[""stims/images/wombat.png"",""stims/images/antelope.png""]","[""wombat"",""antelope""]","[""stims/audio/its_wombat.wav"",""stims/audio/its_antelope.wav""]","right","[""stims/images/antelope.png"",""stims/images/wombat.png""]","[""stims/audio/its_antelope.wav"",""stims/audio/its_wombat.wav""]","[""antelope"",""wombat""]","active","3","","",""
"coact-grid-choice","37","200050","0.0-37.0","p019","4","3","","","","","","6874","","","[""stims/images/tarsier.png"",""stims/images/koala.png"",""stims/images/wombat.png"",""stims/images/zebra.png"",""stims/images/dog.png"",""stims/images/porcupine.png"",""stims/images/alpaca.png"",""stims/images/antelope.png""]","","","","","4","","","stims/images/wombat.png","","","[""stims/images/wombat.png"",""stims/images/antelope.png""]","","","","[""stims/images/antelope.png"",""stims/images/wombat.png""]","[""stims/audio/its_antelope.wav"",""stims/audio/its_wombat.wav""]","[""antelope"",""wombat""]","passive","3","1","stims/audio/its_wombat.wav","[""stims/images/antelope.png"",""stims/images/wombat.png""]"
"coact-grid-choice-audio","38","203059","0.0-38.0","p019","4","3","","","","","","3000","","","[""stims/images/tarsier.png"",""stims/images/koala.png"",""stims/images/wombat.png"",""stims/images/zebra.png"",""stims/images/dog.png"",""stims/images/porcupine.png"",""stims/images/alpaca.png"",""stims/images/antelope.png""]","","","","","4","","","stims/images/wombat.png","","","","","","","","","","passive","3","","stims/audio/its_wombat.wav","[""stims/images/antelope.png"",""stims/images/wombat.png""]"
"coact-grid","39","209557","0.0-39.0","p019","4","3","","","","","","5192","","","[""stims/images/antelope.png"",""stims/images/alpaca.png"",""stims/images/zebra.png"",""stims/images/tarsier.png"",""stims/images/wombat.png"",""stims/images/koala.png"",""stims/images/porcupine.png"",""stims/images/dog.png""]","","","","","4","","","","","[0,7]","[""stims/images/antelope.png"",""stims/images/dog.png""]","[""antelope"",""dog""]","[""stims/audio/thats_antelope.wav"",""stims/audio/thats_dog.wav""]","left","[""stims/images/antelope.png"",""stims/images/dog.png""]","[""stims/audio/thats_antelope.wav"",""stims/audio/thats_dog.wav""]","[""antelope"",""dog""]","active","4","","",""
"coact-grid-choice","40","214307","0.0-40.0","p019","4","3","","","","","","4750","","","[""stims/images/antelope.png"",""stims/images/alpaca.png"",""stims/images/zebra.png"",""stims/images/tarsier.png"",""stims/images/wombat.png"",""stims/images/koala.png"",""stims/images/porcupine.png"",""stims/images/dog.png""]","","","","","4","","","stims/images/antelope.png","","","[""stims/images/antelope.png"",""stims/images/dog.png""]","","","","[""stims/images/antelope.png"",""stims/images/dog.png""]","[""stims/audio/thats_antelope.wav"",""stims/audio/thats_dog.wav""]","[""antelope"",""dog""]","passive","4","0","stims/audio/thats_antelope.wav","[""stims/images/antelope.png"",""stims/images/dog.png""]"
"coact-grid-choice-audio","41","217316","0.0-41.0","p019","4","3","","","","","","3000","","","[""stims/images/antelope.png"",""stims/images/alpaca.png"",""stims/images/zebra.png"",""stims/images/tarsier.png"",""stims/images/wombat.png"",""stims/images/koala.png"",""stims/images/porcupine.png"",""stims/images/dog.png""]","","","","","4","","","stims/images/antelope.png","","","","","","","","","","passive","4","","stims/audio/thats_antelope.wav","[""stims/images/antelope.png"",""stims/images/dog.png""]"
"coact-grid","42","224367","0.0-42.0","p019","4","3","","","","","","5744","","","[""stims/images/alpaca.png"",""stims/images/koala.png"",""stims/images/tarsier.png"",""stims/images/zebra.png"",""stims/images/dog.png"",""stims/images/antelope.png"",""stims/images/wombat.png"",""stims/images/porcupine.png""]","","","","","4","","","","","[2,7]","[""stims/images/tarsier.png"",""stims/images/porcupine.png""]","[""tarsier"",""porcupine""]","[""stims/audio/its_tarsier.wav"",""stims/audio/its_porcupine.wav""]","left","[""stims/images/tarsier.png"",""stims/images/porcupine.png""]","[""stims/audio/its_tarsier.wav"",""stims/audio/its_porcupine.wav""]","[""tarsier"",""porcupine""]","active","5","","",""
"coact-grid-choice","43","228416","0.0-43.0","p019","4","3","","","","","","4047","","","[""stims/images/alpaca.png"",""stims/images/koala.png"",""stims/images/tarsier.png"",""stims/images/zebra.png"",""stims/images/dog.png"",""stims/images/antelope.png"",""stims/images/wombat.png"",""stims/images/porcupine.png""]","","","","","4","","","stims/images/porcupine.png","","","[""stims/images/tarsier.png"",""stims/images/porcupine.png""]","","","","[""stims/images/tarsier.png"",""stims/images/porcupine.png""]","[""stims/audio/its_tarsier.wav"",""stims/audio/its_porcupine.wav""]","[""tarsier"",""porcupine""]","passive","5","1","stims/audio/its_porcupine.wav","[""stims/images/tarsier.png"",""stims/images/porcupine.png""]"
"coact-grid-choice-audio","44","231425","0.0-44.0","p019","4","3","","","","","","3000","","","[""stims/images/alpaca.png"",""stims/images/koala.png"",""stims/images/tarsier.png"",""stims/images/zebra.png"",""stims/images/dog.png"",""stims/images/antelope.png"",""stims/images/wombat.png"",""stims/images/porcupine.png""]","","","","","4","","","stims/images/porcupine.png","","","","","","","","","","passive","5","","stims/audio/its_porcupine.wav","[""stims/images/tarsier.png"",""stims/images/porcupine.png""]"
"html-button-response","45","234767","0.0-45.0","p019","4","3","","","","","","3340.999999999971","","0","","","","","","","","","","","","","","","","","","","","","","",""
"coact-test-prompt","46","242604","0.0-46.0","p019","4","3","","","","","","7836","","","[""stims/images/cat.png"",""stims/images/cow.png"",""stims/images/squirrel.png"",""stims/images/frog.png"",""stims/images/wolf.png"",""stims/images/butterfly.png"",""stims/images/duck.png"",""stims/images/horse.png""]","cat","stims/images/cat.png","familiar","practice_posttest","familiar","","","","","","","","","","","","","","","","",""
"coact-test","47","245806","0.0-47.0","p019","4","3","","","","","","249162.40266666666","","","[""stims/images/cat.png"",""stims/images/cow.png"",""stims/images/squirrel.png"",""stims/images/frog.png"",""stims/images/wolf.png"",""stims/images/butterfly.png"",""stims/images/duck.png"",""stims/images/horse.png""]","cat","","familiar","practice_posttest","familiar","stims/audio/find_cat.wav","0","stims/images/cat.png","1","","","","","","","","","","","","",""
"coact-test-prompt","48","246973","0.0-48.0","p019","4","3","","","","","","1165.999999999971","","","[""stims/images/cat.png"",""stims/images/butterfly.png"",""stims/images/cow.png"",""stims/images/squirrel.png"",""stims/images/wolf.png"",""stims/images/horse.png"",""stims/images/duck.png"",""stims/images/frog.png""]","squirrel","stims/images/squirrel.png","familiar","practice_posttest","familiar","","","","","","","","","","","","","","","","",""
"coact-test","49","250094","0.0-49.0","p019","4","3","","","","","","253447.03200000004","","","[""stims/images/cat.png"",""stims/images/butterfly.png"",""stims/images/cow.png"",""stims/images/squirrel.png"",""stims/images/wolf.png"",""stims/images/horse.png"",""stims/images/duck.png"",""stims/images/frog.png""]","squirrel","","familiar","practice_posttest","familiar","stims/audio/wheres_squirrel.wav","3","stims/images/squirrel.png","1","","","","","","","","","","","","",""
"coact-test-prompt","50","251819","0.0-50.0","p019","4","3","","","","","","1724","","","[""stims/images/alpaca.png"",""stims/images/dog.png"",""stims/images/wombat.png"",""stims/images/koala.png"",""stims/images/porcupine.png"",""stims/images/tarsier.png"",""stims/images/zebra.png"",""stims/images/antelope.png""]","zebra","stims/images/zebra.png","familiar","posttest","4","","","","","","","","","","","","","","","","",""
"coact-test","51","255473","0.0-51.0","p019","4","3","","","","","","258820.18666666668","","","[""stims/images/alpaca.png"",""stims/images/dog.png"",""stims/images/wombat.png"",""stims/images/koala.png"",""stims/images/porcupine.png"",""stims/images/tarsier.png"",""stims/images/zebra.png"",""stims/images/antelope.png""]","zebra","","familiar","posttest","4","stims/audio/find_zebra.wav","6","stims/images/zebra.png","1","","","","","","","","","","","","",""
"coact-test-prompt","52","258849","0.0-52.0","p019","4","3","","","","","","3375","","","[""stims/images/alpaca.png"",""stims/images/dog.png"",""stims/images/tarsier.png"",""stims/images/wombat.png"",""stims/images/koala.png"",""stims/images/porcupine.png"",""stims/images/zebra.png"",""stims/images/antelope.png""]","porcupine","stims/images/porcupine.png","somewhat familiar","posttest","4","","","","","","","","","","","","","","","","",""
"coact-test","53","262068","0.0-53.0","p019","4","3","","","","","","265409.15733333334","","","[""stims/images/alpaca.png"",""stims/images/dog.png"",""stims/images/tarsier.png"",""stims/images/wombat.png"",""stims/images/koala.png"",""stims/images/porcupine.png"",""stims/images/zebra.png"",""stims/images/antelope.png""]","porcupine","","somewhat familiar","posttest","4","stims/audio/wheres_porcupine.wav","5","stims/images/porcupine.png","1","","","","","","","","","","","","",""
"coact-test-prompt","54","263268","0.0-54.0","p019","4","3","","","","","","1199","","","[""stims/images/antelope.png"",""stims/images/alpaca.png"",""stims/images/koala.png"",""stims/images/tarsier.png"",""stims/images/zebra.png"",""stims/images/dog.png"",""stims/images/porcupine.png"",""stims/images/wombat.png""]","antelope","stims/images/antelope.png","somewhat unfamiliar","posttest","4","","","","","","","","","","","","","","","","",""
"coact-test","55","269279","0.0-55.0","p019","4","3","","","","","","272615.7386666667","","","[""stims/images/antelope.png"",""stims/images/alpaca.png"",""stims/images/koala.png"",""stims/images/tarsier.png"",""stims/images/zebra.png"",""stims/images/dog.png"",""stims/images/porcupine.png"",""stims/images/wombat.png""]","antelope","","somewhat unfamiliar","posttest","4","stims/audio/wheres_antelope.wav","1","stims/images/alpaca.png","0","","","","","","","","","","","","",""
"coact-test-prompt","56","272038","0.0-56.0","p019","4","3","","","","","","2758","","","[""stims/images/wombat.png"",""stims/images/alpaca.png"",""stims/images/dog.png"",""stims/images/zebra.png"",""stims/images/koala.png"",""stims/images/porcupine.png"",""stims/images/tarsier.png"",""stims/images/antelope.png""]","tarsier","stims/images/tarsier.png","unfamiliar","posttest","4","","","","","","","","","","","","","","","","",""
"coact-test","57","277910","0.0-57.0","p019","4","3","","","","","","281238.968","","","[""stims/images/wombat.png"",""stims/images/alpaca.png"",""stims/images/dog.png"",""stims/images/zebra.png"",""stims/images/koala.png"",""stims/images/porcupine.png"",""stims/images/tarsier.png"",""stims/images/antelope.png""]","tarsier","","unfamiliar","posttest","4","stims/audio/wheres_tarsier.wav","0","stims/images/wombat.png","0","","","","","","","","","","","","",""
"coact-test-prompt","58","279713","0.0-58.0","p019","4","3","","","","","","1803","","","[""stims/images/zebra.png"",""stims/images/wombat.png"",""stims/images/antelope.png"",""stims/images/porcupine.png"",""stims/images/koala.png"",""stims/images/alpaca.png"",""stims/images/tarsier.png"",""stims/images/dog.png""]","wombat","stims/images/wombat.png","unfamiliar","posttest","4","","","","","","","","","","","","","","","","",""
"coact-test","59","284489","0.0-59.0","p019","4","3","","","","","","287811.29333333333","","","[""stims/images/zebra.png"",""stims/images/wombat.png"",""stims/images/antelope.png"",""stims/images/porcupine.png"",""stims/images/koala.png"",""stims/images/alpaca.png"",""stims/images/tarsier.png"",""stims/images/dog.png""]","wombat","","unfamiliar","posttest","4","stims/audio/find_wombat.wav","6","stims/images/tarsier.png","0","","","","","","","","","","","","",""
"coact-test-prompt","60","298806","0.0-60.0","p019","4","3","","","","","","14316","","","[""stims/images/porcupine.png"",""stims/images/wombat.png"",""stims/images/alpaca.png"",""stims/images/zebra.png"",""stims/images/koala.png"",""stims/images/tarsier.png"",""stims/images/antelope.png"",""stims/images/dog.png""]","dog","stims/images/dog.png","familiar","posttest","4","","","","","","","","","","","","","","","","",""
"coact-test","61","308929","0.0-61.0","p019","4","3","","","","","","312233.2","","","[""stims/images/porcupine.png"",""stims/images/wombat.png"",""stims/images/alpaca.png"",""stims/images/zebra.png"",""stims/images/koala.png"",""stims/images/tarsier.png"",""stims/images/antelope.png"",""stims/images/dog.png""]","dog","","familiar","posttest","4","stims/audio/find_dog.wav","7","stims/images/dog.png","1","","","","","","","","","","","","",""
"coact-test-prompt","62","313457","0.0-62.0","p019","4","3","","","","","","4528","","","[""stims/images/porcupine.png"",""stims/images/tarsier.png"",""stims/images/wombat.png"",""stims/images/koala.png"",""stims/images/zebra.png"",""stims/images/antelope.png"",""stims/images/alpaca.png"",""stims/images/dog.png""]","alpaca","stims/images/alpaca.png","somewhat unfamiliar","posttest","4","","","","","","","","","","","","","","","","",""
"coact-test","63","326704","0.0-63.0","p019","4","3","","","","","","329993.5493333333","","","[""stims/images/porcupine.png"",""stims/images/tarsier.png"",""stims/images/wombat.png"",""stims/images/koala.png"",""stims/images/zebra.png"",""stims/images/antelope.png"",""stims/images/alpaca.png"",""stims/images/dog.png""]","alpaca","","somewhat unfamiliar","posttest","4","stims/audio/find_alpaca.wav","2","stims/images/wombat.png","0","","","","","","","","","","","","",""
"coact-test-prompt","64","332258","0.0-64.0","p019","4","3","","","","","","5552","","","[""stims/images/zebra.png"",""stims/images/antelope.png"",""stims/images/wombat.png"",""stims/images/alpaca.png"",""stims/images/porcupine.png"",""stims/images/tarsier.png"",""stims/images/dog.png"",""stims/images/koala.png""]","koala","stims/images/koala.png","somewhat familiar","posttest","4","","","","","","","","","","","","","","","","",""
"coact-test","65","337279","0.0-65.0","p019","4","3","","","","","","340550.74933333334","","","[""stims/images/zebra.png"",""stims/images/antelope.png"",""stims/images/wombat.png"",""stims/images/alpaca.png"",""stims/images/porcupine.png"",""stims/images/tarsier.png"",""stims/images/dog.png"",""stims/images/koala.png""]","koala","","somewhat familiar","posttest","4","stims/audio/wheres_koala.wav","7","stims/images/koala.png","1","","","","","","","","","","","","",""
