"trial_type","trial_index","time_elapsed","internal_node_id","subject_id","round_name","round_index","success","timeout","failed_images","failed_audio","failed_video","rt","stimulus","response","images","target","target_image","target_type","round_type","set","test_audio","choice","chosen_image","correct","choices","chosen_images","chosen_items","chosen_audio_items","first_choice_location","chosen_images_in_order","chosen_audio_in_order","chosen_items_in_order","condition","sample_num","chosen_index","chosen_audio","central_images"
"pavlovia","0","3","0.0-0.0","p092","1","0","","","","","","","","","","","","","","","","","","","","","","","","","","","","","","",""
"preload","1","346","0.0-1.0","p092","1","0","true","false","[]","[]","[]","","","","","","","","","","","","","","","","","","","","","","","","","",""
"html-button-response","2","64713","0.0-2.0","p092","1","0","","","","","","64370","","0","","","","","","","","","","","","","","","","","","","","","","",""
"coact-test-prompt","3","67334","0.0-3.0","p092","1","0","","","","","","2619","","","[""stims/images/butterfly.png"",""stims/images/horse.png"",""stims/images/frog.png"",""stims/images/wolf.png"",""stims/images/cow.png"",""stims/images/cat.png"",""stims/images/duck.png"",""stims/images/squirrel.png""]","cow","stims/images/cow.png","familiar","practice_pretest","familiar","","","","","","","","","","","","","","","","",""
"coact-test","4","71295","0.0-4.0","p092","1","0","","","","","","80243.95733333334","","","[""stims/images/butterfly.png"",""stims/images/horse.png"",""stims/images/frog.png"",""stims/images/wolf.png"",""stims/images/cow.png"",""stims/images/cat.png"",""stims/images/duck.png"",""stims/images/squirrel.png""]","cow","","familiar","practice_pretest","familiar","stims/audio/find_cow.wav","4","stims/images/cow.png","1","","","","","","","","","","","","",""
"coact-test-prompt","5","73713","0.0-5.0","p092","1","0","","","","","","2417.0000000000146","","","[""stims/images/wolf.png"",""stims/images/cow.png"",""stims/images/horse.png"",""stims/images/duck.png"",""stims/images/frog.png"",""stims/images/cat.png"",""stims/images/squirrel.png"",""stims/images/butterfly.png""]","wolf","stims/images/wolf.png","familiar","practice_pretest","familiar","","","","","","","","","","","","","","","","",""
"coact-test","6","79674","0.0-6.0","p092","1","0","","","","","","88618.584","","","[""stims/images/wolf.png"",""stims/images/cow.png"",""stims/images/horse.png"",""stims/images/duck.png"",""stims/images/frog.png"",""stims/images/cat.png"",""stims/images/squirrel.png"",""stims/images/butterfly.png""]","wolf","","familiar","practice_pretest","familiar","stims/audio/find_wolf.wav","0","stims/images/wolf.png","1","","","","","","","","","","","","",""
"coact-test-prompt","7","81806","0.0-7.0","p092","1","0","","","","","","2131","","","[""stims/images/zebra.png"",""stims/images/dog.png"",""stims/images/sloth.png"",""stims/images/narwhal.png"",""stims/images/dolphin.png"",""stims/images/lobster.png"",""stims/images/armadillo.png"",""stims/images/tarsier.png""]","zebra","stims/images/zebra.png","familiar","pretest","1","","","","","","","","","","","","","","","","",""
"coact-test","8","86692","0.0-8.0","p092","1","0","","","","","","95628.49066666668","","","[""stims/images/zebra.png"",""stims/images/dog.png"",""stims/images/sloth.png"",""stims/images/narwhal.png"",""stims/images/dolphin.png"",""stims/images/lobster.png"",""stims/images/armadillo.png"",""stims/images/tarsier.png""]","zebra","","familiar","pretest","1","stims/audio/find_zebra.wav","0","stims/images/zebra.png","1","","","","","","","","","","","","",""
"coact-test-prompt","9","88344","0.0-9.0","p092","1","0","","","","","","1651","","","[""stims/images/narwhal.png"",""stims/images/zebra.png"",""stims/images/armadillo.png"",""stims/images/tarsier.png"",""stims/images/sloth.png"",""stims/images/dog.png"",""stims/images/dolphin.png"",""stims/images/lobster.png""]","narwhal","stims/images/narwhal.png","unfamiliar","pretest","1","","","","","","","","","","","","","","","","",""
"coact-test","10","93900","0.0-10.0","p092","1","0","","","","","","102829.952","","","[""stims/images/narwhal.png"",""stims/images/zebra.png"",""stims/images/armadillo.png"",""stims/images/tarsier.png"",""stims/images/sloth.png"",""stims/images/dog.png"",""stims/images/dolphin.png"",""stims/images/lobster.png""]","narwhal","","unfamiliar","pretest","1","stims/audio/find_narwhal.wav","0","stims/images/narwhal.png","1","","","","","","","","","","","","",""
"coact-test-prompt","11","95908","0.0-11.0","p092","1","0","","","","","","2007","","","[""stims/images/tarsier.png"",""stims/images/zebra.png"",""stims/images/sloth.png"",""stims/images/armadillo.png"",""stims/images/dolphin.png"",""stims/images/lobster.png"",""stims/images/dog.png"",""stims/images/narwhal.png""]","armadillo","stims/images/armadillo.png","somewhat unfamiliar","pretest","1","","","","","","","","","","","","","","","","",""
"coact-test","12","132514","0.0-12.0","p092","1","0","","","","","","141439.38933333333","","","[""stims/images/tarsier.png"",""stims/images/zebra.png"",""stims/images/sloth.png"",""stims/images/armadillo.png"",""stims/images/dolphin.png"",""stims/images/lobster.png"",""stims/images/dog.png"",""stims/images/narwhal.png""]","armadillo","","somewhat unfamiliar","pretest","1","stims/audio/find_armadillo.wav","0","stims/images/tarsier.png","0","","","","","","","","","","","","",""
"coact-test-prompt","13","134351","0.0-13.0","p092","1","0","","","","","","1835","","","[""stims/images/dog.png"",""stims/images/dolphin.png"",""stims/images/armadillo.png"",""stims/images/sloth.png"",""stims/images/zebra.png"",""stims/images/lobster.png"",""stims/images/tarsier.png"",""stims/images/narwhal.png""]","sloth","stims/images/sloth.png","somewhat unfamiliar","pretest","1","","","","","","","","","","","","","","","","",""
"coact-test","14","148632","0.0-14.0","p092","1","0","","","","","","157519.94666666666","","","[""stims/images/dog.png"",""stims/images/dolphin.png"",""stims/images/armadillo.png"",""stims/images/sloth.png"",""stims/images/zebra.png"",""stims/images/lobster.png"",""stims/images/tarsier.png"",""stims/images/narwhal.png""]","sloth","","somewhat unfamiliar","pretest","1","stims/audio/wheres_sloth.wav","3","stims/images/sloth.png","1","","","","","","","","","","","","",""
"coact-test-prompt","15","150083","0.0-15.0","p092","1","0","","","","","","1450","","","[""stims/images/lobster.png"",""stims/images/armadillo.png"",""stims/images/dog.png"",""stims/images/zebra.png"",""stims/images/narwhal.png"",""stims/images/tarsier.png"",""stims/images/sloth.png"",""stims/images/dolphin.png""]","dog","stims/images/dog.png","familiar","pretest","1","","","","","","","","","","","","","","","","",""
"coact-test","16","152959","0.0-16.0","p092","1","0","","","","","","161831.21333333335","","","[""stims/images/lobster.png"",""stims/images/armadillo.png"",""stims/images/dog.png"",""stims/images/zebra.png"",""stims/images/narwhal.png"",""stims/images/tarsier.png"",""stims/images/sloth.png"",""stims/images/dolphin.png""]","dog","","familiar","pretest","1","stims/audio/wheres_dog.wav","2","stims/images/dog.png","1","","","","","","","","","","","","",""
"coact-test-prompt","17","154392","0.0-17.0","p092","1","0","","","","","","1432","","","[""stims/images/sloth.png"",""stims/images/armadillo.png"",""stims/images/narwhal.png"",""stims/images/dolphin.png"",""stims/images/zebra.png"",""stims/images/lobster.png"",""stims/images/tarsier.png"",""stims/images/dog.png""]","tarsier","stims/images/tarsier.png","unfamiliar","pretest","1","","","","","","","","","","","","","","","","",""
"coact-test","18","163815","0.0-18.0","p092","1","0","","","","","","172682.90400000004","","","[""stims/images/sloth.png"",""stims/images/armadillo.png"",""stims/images/narwhal.png"",""stims/images/dolphin.png"",""stims/images/zebra.png"",""stims/images/lobster.png"",""stims/images/tarsier.png"",""stims/images/dog.png""]","tarsier","","unfamiliar","pretest","1","stims/audio/wheres_tarsier.wav","1","stims/images/armadillo.png","0","","","","","","","","","","","","",""
"coact-test-prompt","19","165397","0.0-19.0","p092","1","0","","","","","","1581","","","[""stims/images/armadillo.png"",""stims/images/zebra.png"",""stims/images/dolphin.png"",""stims/images/lobster.png"",""stims/images/sloth.png"",""stims/images/narwhal.png"",""stims/images/tarsier.png"",""stims/images/dog.png""]","lobster","stims/images/lobster.png","somewhat familiar","pretest","1","","","","","","","","","","","","","","","","",""
"coact-test","20","173262","0.0-20.0","p092","1","0","","","","","","182119.89866666668","","","[""stims/images/armadillo.png"",""stims/images/zebra.png"",""stims/images/dolphin.png"",""stims/images/lobster.png"",""stims/images/sloth.png"",""stims/images/narwhal.png"",""stims/images/tarsier.png"",""stims/images/dog.png""]","lobster","","somewhat familiar","pretest","1","stims/audio/wheres_lobster.wav","3","stims/images/lobster.png","1","","","","","","","","","","","","",""
"coact-test-prompt","21","174811","0.0-21.0","p092","1","0","","","","","","1547","","","[""stims/images/zebra.png"",""stims/images/dolphin.png"",""stims/images/armadillo.png"",""stims/images/lobster.png"",""stims/images/tarsier.png"",""stims/images/sloth.png"",""stims/images/narwhal.png"",""stims/images/dog.png""]","dolphin","stims/images/dolphin.png","somewhat familiar","pretest","1","","","","","","","","","","","","","","","","",""
"coact-test","22","179182","0.0-22.0","p092","1","0","","","","","","188031.48533333337","","","[""stims/images/zebra.png"",""stims/images/dolphin.png"",""stims/images/armadillo.png"",""stims/images/lobster.png"",""stims/images/tarsier.png"",""stims/images/sloth.png"",""stims/images/narwhal.png"",""stims/images/dog.png""]","dolphin","","somewhat familiar","pretest","1","stims/audio/find_dolphin.wav","1","stims/images/dolphin.png","1","","","","","","","","","","","","",""
"html-button-response","23","224898","0.0-23.0","p092","1","0","","","","","","45715","","0","","","","","","","","","","","","","","","","","","","","","","",""
"coact-grid","24","230037","0.0-24.0","p092","1","0","","","","","","3828","","","[""stims/images/cow.png"",""stims/images/horse.png"",""stims/images/cat.png"",""stims/images/wolf.png"",""stims/images/duck.png"",""stims/images/squirrel.png"",""stims/images/frog.png"",""stims/images/butterfly.png""]","","","","","familiar","","","","","[5,0]","[""stims/images/squirrel.png"",""stims/images/cow.png""]","[""squirrel"",""cow""]","[""stims/audio/its_squirrel.wav"",""stims/audio/its_cow.wav""]","right","[""stims/images/cow.png"",""stims/images/squirrel.png""]","[""stims/audio/its_cow.wav"",""stims/audio/its_squirrel.wav""]","[""cow"",""squirrel""]","passive","0","","",""
"coact-grid-choice","25","234293","0.0-25.0","p092","1","0","","","","","","4253","","","[""stims/images/cow.png"",""stims/images/horse.png"",""stims/images/cat.png"",""stims/images/wolf.png"",""stims/images/duck.png"",""stims/images/squirrel.png"",""stims/images/frog.png"",""stims/images/butterfly.png""]","","","","","familiar","","","stims/images/squirrel.png","","","[""stims/images/squirrel.png"",""stims/images/cow.png""]","","","","[""stims/images/cow.png"",""stims/images/squirrel.png""]","[""stims/audio/its_cow.wav"",""stims/audio/its_squirrel.wav""]","[""cow"",""squirrel""]","active","0","1","stims/audio/its_squirrel.wav","[""stims/images/cow.png"",""stims/images/squirrel.png""]"
"coact-grid-choice-audio","26","237305","0.0-26.0","p092","1","0","","","","","","3003","","","[""stims/images/cow.png"",""stims/images/horse.png"",""stims/images/cat.png"",""stims/images/wolf.png"",""stims/images/duck.png"",""stims/images/squirrel.png"",""stims/images/frog.png"",""stims/images/butterfly.png""]","","","","","familiar","","","stims/images/squirrel.png","","","","","","","","","","active","0","","stims/audio/its_squirrel.wav","[""stims/images/cow.png"",""stims/images/squirrel.png""]"
"coact-grid","27","241641","0.0-27.0","p092","1","0","","","","","","3028","","","[""stims/images/dolphin.png"",""stims/images/tarsier.png"",""stims/images/zebra.png"",""stims/images/armadillo.png"",""stims/images/narwhal.png"",""stims/images/sloth.png"",""stims/images/lobster.png"",""stims/images/dog.png""]","","","","","1","","","","","[7,1]","[""stims/images/dog.png"",""stims/images/tarsier.png""]","[""dog"",""tarsier""]","[""stims/audio/its_dog.wav"",""stims/audio/its_tarsier.wav""]","right","[""stims/images/tarsier.png"",""stims/images/dog.png""]","[""stims/audio/its_tarsier.wav"",""stims/audio/its_dog.wav""]","[""tarsier"",""dog""]","passive","0","","",""
"coact-grid-choice","28","243848","0.0-28.0","p092","1","0","","","","","","2205","","","[""stims/images/dolphin.png"",""stims/images/tarsier.png"",""stims/images/zebra.png"",""stims/images/armadillo.png"",""stims/images/narwhal.png"",""stims/images/sloth.png"",""stims/images/lobster.png"",""stims/images/dog.png""]","","","","","1","","","stims/images/dog.png","","","[""stims/images/dog.png"",""stims/images/tarsier.png""]","","","","[""stims/images/tarsier.png"",""stims/images/dog.png""]","[""stims/audio/its_tarsier.wav"",""stims/audio/its_dog.wav""]","[""tarsier"",""dog""]","active","0","1","stims/audio/its_dog.wav","[""stims/images/tarsier.png"",""stims/images/dog.png""]"
"coact-grid-choice-audio","29","246856","0.0-29.0","p092","1","0","","","","","","3003","","","[""stims/images/dolphin.png"",""stims/images/tarsier.png"",""stims/images/zebra.png"",""stims/images/armadillo.png"",""stims/images/narwhal.png"",""stims/images/sloth.png"",""stims/images/lobster.png"",""stims/images/dog.png""]","","","","","1","","","stims/images/dog.png","","","","","","","","","","active","0","","stims/audio/its_dog.wav","[""stims/images/tarsier.png"",""stims/images/dog.png""]"
"coact-grid","30","250571","0.0-30.0","p092","1","0","","","","","","2406.999999999971","","","[""stims/images/dog.png"",""stims/images/tarsier.png"",""stims/images/lobster.png"",""stims/images/sloth.png"",""stims/images/dolphin.png"",""stims/images/armadillo.png"",""stims/images/narwhal.png"",""stims/images/zebra.png""]","","","","","1","","","","","[6,0]","[""stims/images/narwhal.png"",""stims/images/dog.png""]","[""narwhal"",""dog""]","[""stims/audio/thats_narwhal.wav"",""stims/audio/thats_dog.wav""]","left","[""stims/images/narwhal.png"",""stims/images/dog.png""]","[""stims/audio/thats_narwhal.wav"",""stims/audio/thats_dog.wav""]","[""narwhal"",""dog""]","passive","1","","",""
"coact-grid-choice","31","253654","0.0-31.0","p092","1","0","","","","","","3082","","","[""stims/images/dog.png"",""stims/images/tarsier.png"",""stims/images/lobster.png"",""stims/images/sloth.png"",""stims/images/dolphin.png"",""stims/images/armadillo.png"",""stims/images/narwhal.png"",""stims/images/zebra.png""]","","","","","1","","","stims/images/narwhal.png","","","[""stims/images/narwhal.png"",""stims/images/dog.png""]","","","","[""stims/images/narwhal.png"",""stims/images/dog.png""]","[""stims/audio/thats_narwhal.wav"",""stims/audio/thats_dog.wav""]","[""narwhal"",""dog""]","active","1","0","stims/audio/thats_narwhal.wav","[""stims/images/narwhal.png"",""stims/images/dog.png""]"
"coact-grid-choice-audio","32","256663","0.0-32.0","p092","1","0","","","","","","3000","","","[""stims/images/dog.png"",""stims/images/tarsier.png"",""stims/images/lobster.png"",""stims/images/sloth.png"",""stims/images/dolphin.png"",""stims/images/armadillo.png"",""stims/images/narwhal.png"",""stims/images/zebra.png""]","","","","","1","","","stims/images/narwhal.png","","","","","","","","","","active","1","","stims/audio/thats_narwhal.wav","[""stims/images/narwhal.png"",""stims/images/dog.png""]"
"coact-grid","33","260359","0.0-33.0","p092","1","0","","","","","","2390","","","[""stims/images/dolphin.png"",""stims/images/dog.png"",""stims/images/armadillo.png"",""stims/images/lobster.png"",""stims/images/narwhal.png"",""stims/images/sloth.png"",""stims/images/tarsier.png"",""stims/images/zebra.png""]","","","","","1","","","","","[2,0]","[""stims/images/armadillo.png"",""stims/images/dolphin.png""]","[""armadillo"",""dolphin""]","[""stims/audio/its_armadillo.wav"",""stims/audio/its_dolphin.wav""]","right","[""stims/images/dolphin.png"",""stims/images/armadillo.png""]","[""stims/audio/its_dolphin.wav"",""stims/audio/its_armadillo.wav""]","[""dolphin"",""armadillo""]","passive","2","","",""
"coact-grid-choice","34","262392","0.0-34.0","p092","1","0","","","","","","2032","","","[""stims/images/dolphin.png"",""stims/images/dog.png"",""stims/images/armadillo.png"",""stims/images/lobster.png"",""stims/images/narwhal.png"",""stims/images/sloth.png"",""stims/images/tarsier.png"",""stims/images/zebra.png""]","","","","","1","","","stims/images/armadillo.png","","","[""stims/images/armadillo.png"",""stims/images/dolphin.png""]","","","","[""stims/images/dolphin.png"",""stims/images/armadillo.png""]","[""stims/audio/its_dolphin.wav"",""stims/audio/its_armadillo.wav""]","[""dolphin"",""armadillo""]","active","2","1","stims/audio/its_armadillo.wav","[""stims/images/dolphin.png"",""stims/images/armadillo.png""]"
"coact-grid-choice-audio","35","265401","0.0-35.0","p092","1","0","","","","","","3000","","","[""stims/images/dolphin.png"",""stims/images/dog.png"",""stims/images/armadillo.png"",""stims/images/lobster.png"",""stims/images/narwhal.png"",""stims/images/sloth.png"",""stims/images/tarsier.png"",""stims/images/zebra.png""]","","","","","1","","","stims/images/armadillo.png","","","","","","","","","","active","2","","stims/audio/its_armadillo.wav","[""stims/images/dolphin.png"",""stims/images/armadillo.png""]"
"coact-grid","36","269231","0.0-36.0","p092","1","0","","","","","","2521","","","[""stims/images/tarsier.png"",""stims/images/sloth.png"",""stims/images/lobster.png"",""stims/images/armadillo.png"",""stims/images/dolphin.png"",""stims/images/zebra.png"",""stims/images/narwhal.png"",""stims/images/dog.png""]","","","","","1","","","","","[2,5]","[""stims/images/lobster.png"",""stims/images/zebra.png""]","[""lobster"",""zebra""]","[""stims/audio/thats_lobster.wav"",""stims/audio/thats_zebra.wav""]","left","[""stims/images/lobster.png"",""stims/images/zebra.png""]","[""stims/audio/thats_lobster.wav"",""stims/audio/thats_zebra.wav""]","[""lobster"",""zebra""]","passive","3","","",""
"coact-grid-choice","37","271047","0.0-37.0","p092","1","0","","","","","","1813.9999999999418","","","[""stims/images/tarsier.png"",""stims/images/sloth.png"",""stims/images/lobster.png"",""stims/images/armadillo.png"",""stims/images/dolphin.png"",""stims/images/zebra.png"",""stims/images/narwhal.png"",""stims/images/dog.png""]","","","","","1","","","stims/images/lobster.png","","","[""stims/images/lobster.png"",""stims/images/zebra.png""]","","","","[""stims/images/lobster.png"",""stims/images/zebra.png""]","[""stims/audio/thats_lobster.wav"",""stims/audio/thats_zebra.wav""]","[""lobster"",""zebra""]","active","3","0","stims/audio/thats_lobster.wav","[""stims/images/lobster.png"",""stims/images/zebra.png""]"
"coact-grid-choice-audio","38","274056","0.0-38.0","p092","1","0","","","","","","3003","","","[""stims/images/tarsier.png"",""stims/images/sloth.png"",""stims/images/lobster.png"",""stims/images/armadillo.png"",""stims/images/dolphin.png"",""stims/images/zebra.png"",""stims/images/narwhal.png"",""stims/images/dog.png""]","","","","","1","","","stims/images/lobster.png","","","","","","","","","","active","3","","stims/audio/thats_lobster.wav","[""stims/images/lobster.png"",""stims/images/zebra.png""]"
"coact-grid","39","277751","0.0-39.0","p092","1","0","","","","","","2389","","","[""stims/images/narwhal.png"",""stims/images/lobster.png"",""stims/images/sloth.png"",""stims/images/armadillo.png"",""stims/images/zebra.png"",""stims/images/tarsier.png"",""stims/images/dog.png"",""stims/images/dolphin.png""]","","","","","1","","","","","[7,0]","[""stims/images/dolphin.png"",""stims/images/narwhal.png""]","[""dolphin"",""narwhal""]","[""stims/audio/its_dolphin.wav"",""stims/audio/its_narwhal.wav""]","left","[""stims/images/dolphin.png"",""stims/images/narwhal.png""]","[""stims/audio/its_dolphin.wav"",""stims/audio/its_narwhal.wav""]","[""dolphin"",""narwhal""]","passive","4","","",""
"coact-grid-choice","40","280018","0.0-40.0","p092","1","0","","","","","","2266","","","[""stims/images/narwhal.png"",""stims/images/lobster.png"",""stims/images/sloth.png"",""stims/images/armadillo.png"",""stims/images/zebra.png"",""stims/images/tarsier.png"",""stims/images/dog.png"",""stims/images/dolphin.png""]","","","","","1","","","stims/images/dolphin.png","","","[""stims/images/dolphin.png"",""stims/images/narwhal.png""]","","","","[""stims/images/dolphin.png"",""stims/images/narwhal.png""]","[""stims/audio/its_dolphin.wav"",""stims/audio/its_narwhal.wav""]","[""dolphin"",""narwhal""]","active","4","0","stims/audio/its_dolphin.wav","[""stims/images/dolphin.png"",""stims/images/narwhal.png""]"
"coact-grid-choice-audio","41","283028","0.0-41.0","p092","1","0","","","","","","3000","","","[""stims/images/narwhal.png"",""stims/images/lobster.png"",""stims/images/sloth.png"",""stims/images/armadillo.png"",""stims/images/zebra.png"",""stims/images/tarsier.png"",""stims/images/dog.png"",""stims/images/dolphin.png""]","","","","","1","","","stims/images/dolphin.png","","","","","","","","","","active","4","","stims/audio/its_dolphin.wav","[""stims/images/dolphin.png"",""stims/images/narwhal.png""]"
"coact-grid","42","286675","0.0-42.0","p092","1","0","","","","","","2342","","","[""stims/images/armadillo.png"",""stims/images/dog.png"",""stims/images/sloth.png"",""stims/images/narwhal.png"",""stims/images/lobster.png"",""stims/images/tarsier.png"",""stims/images/zebra.png"",""stims/images/dolphin.png""]","","","","","1","","","","","[6,2]","[""stims/images/zebra.png"",""stims/images/sloth.png""]","[""zebra"",""sloth""]","[""stims/audio/thats_zebra.wav"",""stims/audio/thats_sloth.wav""]","right","[""stims/images/sloth.png"",""stims/images/zebra.png""]","[""stims/audio/thats_sloth.wav"",""stims/audio/thats_zebra.wav""]","[""sloth"",""zebra""]","passive","5","","",""
"coact-grid-choice","43","288990","0.0-43.0","p092","1","0","","","","","","2314","","","[""stims/images/armadillo.png"",""stims/images/dog.png"",""stims/images/sloth.png"",""stims/images/narwhal.png"",""stims/images/lobster.png"",""stims/images/tarsier.png"",""stims/images/zebra.png"",""stims/images/dolphin.png""]","","","","","1","","","stims/images/sloth.png","","","[""stims/images/zebra.png"",""stims/images/sloth.png""]","","","","[""stims/images/sloth.png"",""stims/images/zebra.png""]","[""stims/audio/thats_sloth.wav"",""stims/audio/thats_zebra.wav""]","[""sloth"",""zebra""]","active","5","0","stims/audio/thats_sloth.wav","[""stims/images/sloth.png"",""stims/images/zebra.png""]"
"coact-grid-choice-audio","44","292000","0.0-44.0","p092","1","0","","","","","","3003","","","[""stims/images/armadillo.png"",""stims/images/dog.png"",""stims/images/sloth.png"",""stims/images/narwhal.png"",""stims/images/lobster.png"",""stims/images/tarsier.png"",""stims/images/zebra.png"",""stims/images/dolphin.png""]","","","","","1","","","stims/images/sloth.png","","","","","","","","","","active","5","","stims/audio/thats_sloth.wav","[""stims/images/sloth.png"",""stims/images/zebra.png""]"
"html-button-response","45","308505","0.0-45.0","p092","1","0","","","","","","16505","","0","","","","","","","","","","","","","","","","","","","","","","",""
"coact-test-prompt","46","310983","0.0-46.0","p092","1","0","","","","","","2477","","","[""stims/images/squirrel.png"",""stims/images/frog.png"",""stims/images/duck.png"",""stims/images/cat.png"",""stims/images/butterfly.png"",""stims/images/cow.png"",""stims/images/horse.png"",""stims/images/wolf.png""]","cow","stims/images/cow.png","familiar","practice_posttest","familiar","","","","","","","","","","","","","","","","",""
"coact-test","47","315911","0.0-47.0","p092","1","0","","","","","","324631.312","","","[""stims/images/squirrel.png"",""stims/images/frog.png"",""stims/images/duck.png"",""stims/images/cat.png"",""stims/images/butterfly.png"",""stims/images/cow.png"",""stims/images/horse.png"",""stims/images/wolf.png""]","cow","","familiar","practice_posttest","familiar","stims/audio/find_cow.wav","5","stims/images/cow.png","1","","","","","","","","","","","","",""
"coact-test-prompt","48","317386","0.0-48.0","p092","1","0","","","","","","1474","","","[""stims/images/butterfly.png"",""stims/images/frog.png"",""stims/images/cow.png"",""stims/images/duck.png"",""stims/images/squirrel.png"",""stims/images/wolf.png"",""stims/images/horse.png"",""stims/images/cat.png""]","wolf","stims/images/wolf.png","familiar","practice_posttest","familiar","","","","","","","","","","","","","","","","",""
"coact-test","49","322288","0.0-49.0","p092","1","0","","","","","","331003.912","","","[""stims/images/butterfly.png"",""stims/images/frog.png"",""stims/images/cow.png"",""stims/images/duck.png"",""stims/images/squirrel.png"",""stims/images/wolf.png"",""stims/images/horse.png"",""stims/images/cat.png""]","wolf","","familiar","practice_posttest","familiar","stims/audio/find_wolf.wav","5","stims/images/wolf.png","1","","","","","","","","","","","","",""
"coact-test-prompt","50","323915","0.0-50.0","p092","1","0","","","","","","1626","","","[""stims/images/tarsier.png"",""stims/images/narwhal.png"",""stims/images/sloth.png"",""stims/images/dolphin.png"",""stims/images/zebra.png"",""stims/images/lobster.png"",""stims/images/armadillo.png"",""stims/images/dog.png""]","lobster","stims/images/lobster.png","somewhat familiar","posttest","1","","","","","","","","","","","","","","","","",""
"coact-test","51","326665","0.0-51.0","p092","1","0","","","","","","335373.3813333333","","","[""stims/images/tarsier.png"",""stims/images/narwhal.png"",""stims/images/sloth.png"",""stims/images/dolphin.png"",""stims/images/zebra.png"",""stims/images/lobster.png"",""stims/images/armadillo.png"",""stims/images/dog.png""]","lobster","","somewhat familiar","posttest","1","stims/audio/find_lobster.wav","5","stims/images/lobster.png","1","","","","","","","","","","","","",""
"coact-test-prompt","52","328131","0.0-52.0","p092","1","0","","","","","","1465","","","[""stims/images/dolphin.png"",""stims/images/lobster.png"",""stims/images/zebra.png"",""stims/images/narwhal.png"",""stims/images/dog.png"",""stims/images/tarsier.png"",""stims/images/sloth.png"",""stims/images/armadillo.png""]","sloth","stims/images/sloth.png","somewhat unfamiliar","posttest","1","","","","","","","","","","","","","","","","",""
"coact-test","53","332354","0.0-53.0","p092","1","0","","","","","","341059.1653333333","","","[""stims/images/dolphin.png"",""stims/images/lobster.png"",""stims/images/zebra.png"",""stims/images/narwhal.png"",""stims/images/dog.png"",""stims/images/tarsier.png"",""stims/images/sloth.png"",""stims/images/armadillo.png""]","sloth","","somewhat unfamiliar","posttest","1","stims/audio/find_sloth.wav","6","stims/images/sloth.png","1","","","","","","","","","","","","",""
"coact-test-prompt","54","334078","0.0-54.0","p092","1","0","","","","","","1723","","","[""stims/images/tarsier.png"",""stims/images/dolphin.png"",""stims/images/zebra.png"",""stims/images/narwhal.png"",""stims/images/armadillo.png"",""stims/images/lobster.png"",""stims/images/sloth.png"",""stims/images/dog.png""]","dog","stims/images/dog.png","familiar","posttest","1","","","","","","","","","","","","","","","","",""
"coact-test","55","337996","0.0-55.0","p092","1","0","","","","","","346695.21866666665","","","[""stims/images/tarsier.png"",""stims/images/dolphin.png"",""stims/images/zebra.png"",""stims/images/narwhal.png"",""stims/images/armadillo.png"",""stims/images/lobster.png"",""stims/images/sloth.png"",""stims/images/dog.png""]","dog","","familiar","posttest","1","stims/audio/find_dog.wav","7","stims/images/dog.png","1","","","","","","","","","","","","",""
"coact-test-prompt","56","339999","0.0-56.0","p092","1","0","","","","","","2002","","","[""stims/images/lobster.png"",""stims/images/dolphin.png"",""stims/images/armadillo.png"",""stims/images/sloth.png"",""stims/images/tarsier.png"",""stims/images/narwhal.png"",""stims/images/zebra.png"",""stims/images/dog.png""]","narwhal","stims/images/narwhal.png","unfamiliar","posttest","1","","","","","","","","","","","","","","","","",""
"coact-test","57","343200","0.0-57.0","p092","1","0","","","","","","351893.296","","","[""stims/images/lobster.png"",""stims/images/dolphin.png"",""stims/images/armadillo.png"",""stims/images/sloth.png"",""stims/images/tarsier.png"",""stims/images/narwhal.png"",""stims/images/zebra.png"",""stims/images/dog.png""]","narwhal","","unfamiliar","posttest","1","stims/audio/wheres_narwhal.wav","5","stims/images/narwhal.png","1","","","","","","","","","","","","",""
"coact-test-prompt","58","343976","0.0-58.0","p092","1","0","","","","","","775","","","[""stims/images/zebra.png"",""stims/images/dog.png"",""stims/images/tarsier.png"",""stims/images/armadillo.png"",""stims/images/lobster.png"",""stims/images/dolphin.png"",""stims/images/narwhal.png"",""stims/images/sloth.png""]","tarsier","stims/images/tarsier.png","unfamiliar","posttest","1","","","","","","","","","","","","","","","","",""
"coact-test","59","352209","0.0-59.0","p092","1","0","","","","","","360896.32","","","[""stims/images/zebra.png"",""stims/images/dog.png"",""stims/images/tarsier.png"",""stims/images/armadillo.png"",""stims/images/lobster.png"",""stims/images/dolphin.png"",""stims/images/narwhal.png"",""stims/images/sloth.png""]","tarsier","","unfamiliar","posttest","1","stims/audio/wheres_tarsier.wav","3","stims/images/armadillo.png","0","","","","","","","","","","","","",""
"coact-test-prompt","60","353422","0.0-60.0","p092","1","0","","","","","","1211","","","[""stims/images/tarsier.png"",""stims/images/dog.png"",""stims/images/armadillo.png"",""stims/images/narwhal.png"",""stims/images/lobster.png"",""stims/images/sloth.png"",""stims/images/dolphin.png"",""stims/images/zebra.png""]","dolphin","stims/images/dolphin.png","somewhat familiar","posttest","1","","","","","","","","","","","","","","","","",""
"coact-test","61","360702","0.0-61.0","p092","1","0","","","","","","369382.87466666667","","","[""stims/images/tarsier.png"",""stims/images/dog.png"",""stims/images/armadillo.png"",""stims/images/narwhal.png"",""stims/images/lobster.png"",""stims/images/sloth.png"",""stims/images/dolphin.png"",""stims/images/zebra.png""]","dolphin","","somewhat familiar","posttest","1","stims/audio/wheres_dolphin.wav","6","stims/images/dolphin.png","1","","","","","","","","","","","","",""
"coact-test-prompt","62","362643","0.0-62.0","p092","1","0","","","","","","1939.0000000000582","","","[""stims/images/dog.png"",""stims/images/lobster.png"",""stims/images/tarsier.png"",""stims/images/narwhal.png"",""stims/images/zebra.png"",""stims/images/armadillo.png"",""stims/images/sloth.png"",""stims/images/dolphin.png""]","zebra","stims/images/zebra.png","familiar","posttest","1","","","","","","","","","","","","","","","","",""
"coact-test","63","367000","0.0-63.0","p092","1","0","","","","","","375672.6533333333","","","[""stims/images/dog.png"",""stims/images/lobster.png"",""stims/images/tarsier.png"",""stims/images/narwhal.png"",""stims/images/zebra.png"",""stims/images/armadillo.png"",""stims/images/sloth.png"",""stims/images/dolphin.png""]","zebra","","familiar","posttest","1","stims/audio/wheres_zebra.wav","4","stims/images/zebra.png","1","","","","","","","","","","","","",""
"coact-test-prompt","64","368328","0.0-64.0","p092","1","0","","","","","","1326.0000000000582","","","[""stims/images/narwhal.png"",""stims/images/dog.png"",""stims/images/lobster.png"",""stims/images/armadillo.png"",""stims/images/zebra.png"",""stims/images/dolphin.png"",""stims/images/tarsier.png"",""stims/images/sloth.png""]","armadillo","stims/images/armadillo.png","somewhat unfamiliar","posttest","1","","","","","","","","","","","","","","","","",""
"coact-test","65","373894","0.0-65.0","p092","1","0","","","","","","382560.96800000005","","","[""stims/images/narwhal.png"",""stims/images/dog.png"",""stims/images/lobster.png"",""stims/images/armadillo.png"",""stims/images/zebra.png"",""stims/images/dolphin.png"",""stims/images/tarsier.png"",""stims/images/sloth.png""]","armadillo","","somewhat unfamiliar","posttest","1","stims/audio/find_armadillo.wav","6","stims/images/tarsier.png","0","","","","","","","","","","","","",""
