"trial_type","trial_index","time_elapsed","internal_node_id","subject_id","round_name","round_index","success","timeout","failed_images","failed_audio","failed_video","rt","stimulus","response","images","target","target_image","target_type","round_type","set","test_audio","choice","chosen_image","correct","choices","chosen_images","chosen_items","chosen_audio_items","first_choice_location","chosen_images_in_order","chosen_audio_in_order","chosen_items_in_order","condition","sample_num","chosen_index","chosen_audio","central_images"
"pavlovia","0","3","0.0-0.0","p044","3","2","","","","","","","","","","","","","","","","","","","","","","","","","","","","","","",""
"preload","1","274","0.0-1.0","p044","3","2","true","false","[]","[]","[]","","","","","","","","","","","","","","","","","","","","","","","","","",""
"html-button-response","2","9017","0.0-2.0","p044","3","2","","","","","","8742.000000000002","","0","","","","","","","","","","","","","","","","","","","","","","",""
"coact-test-prompt","3","10793","0.0-3.0","p044","3","2","","","","","","1775","","","[""stims/images/cow.png"",""stims/images/frog.png"",""stims/images/cat.png"",""stims/images/butterfly.png"",""stims/images/duck.png"",""stims/images/wolf.png"",""stims/images/squirrel.png"",""stims/images/horse.png""]","duck","stims/images/duck.png","familiar","practice_pretest","familiar","","","","","","","","","","","","","","","","",""
"coact-test","4","15275","0.0-4.0","p044","3","2","","","","","","19446.293333333335","","","[""stims/images/cow.png"",""stims/images/frog.png"",""stims/images/cat.png"",""stims/images/butterfly.png"",""stims/images/duck.png"",""stims/images/wolf.png"",""stims/images/squirrel.png"",""stims/images/horse.png""]","duck","","familiar","practice_pretest","familiar","stims/audio/find_duck.wav","4","stims/images/duck.png","1","","","","","","","","","","","","",""
"coact-test-prompt","5","18176","0.0-5.0","p044","3","2","","","","","","2900","","","[""stims/images/cat.png"",""stims/images/cow.png"",""stims/images/butterfly.png"",""stims/images/horse.png"",""stims/images/wolf.png"",""stims/images/squirrel.png"",""stims/images/frog.png"",""stims/images/duck.png""]","horse","stims/images/horse.png","familiar","practice_pretest","familiar","","","","","","","","","","","","","","","","",""
"coact-test","6","22643","0.0-6.0","p044","3","2","","","","","","26806.909333333333","","","[""stims/images/cat.png"",""stims/images/cow.png"",""stims/images/butterfly.png"",""stims/images/horse.png"",""stims/images/wolf.png"",""stims/images/squirrel.png"",""stims/images/frog.png"",""stims/images/duck.png""]","horse","","familiar","practice_pretest","familiar","stims/audio/find_horse.wav","3","stims/images/horse.png","1","","","","","","","","","","","","",""
"coact-test-prompt","7","24985","0.0-7.0","p044","3","2","","","","","","2341","","","[""stims/images/wombat.png"",""stims/images/tapir.png"",""stims/images/alpaca.png"",""stims/images/rabbit.png"",""stims/images/koala.png"",""stims/images/antelope.png"",""stims/images/raccoon.png"",""stims/images/pig.png""]","rabbit","stims/images/rabbit.png","familiar","pretest","3","","","","","","","","","","","","","","","","",""
"coact-test","8","35361","0.0-8.0","p044","3","2","","","","","","39518.10133333333","","","[""stims/images/wombat.png"",""stims/images/tapir.png"",""stims/images/alpaca.png"",""stims/images/rabbit.png"",""stims/images/koala.png"",""stims/images/antelope.png"",""stims/images/raccoon.png"",""stims/images/pig.png""]","rabbit","","familiar","pretest","3","stims/audio/find_rabbit.wav","3","stims/images/rabbit.png","1","","","","","","","","","","","","",""
"coact-test-prompt","9","40729","0.0-9.0","p044","3","2","","","","","","5368","","","[""stims/images/alpaca.png"",""stims/images/raccoon.png"",""stims/images/wombat.png"",""stims/images/rabbit.png"",""stims/images/pig.png"",""stims/images/tapir.png"",""stims/images/antelope.png"",""stims/images/koala.png""]","tapir","stims/images/tapir.png","unfamiliar","pretest","3","","","","","","","","","","","","","","","","",""
"coact-test","10","44508","0.0-10.0","p044","3","2","","","","","","48649.35733333333","","","[""stims/images/alpaca.png"",""stims/images/raccoon.png"",""stims/images/wombat.png"",""stims/images/rabbit.png"",""stims/images/pig.png"",""stims/images/tapir.png"",""stims/images/antelope.png"",""stims/images/koala.png""]","tapir","","unfamiliar","pretest","3","stims/audio/find_tapir.wav","6","stims/images/antelope.png","0","","","","","","","","","","","","",""
"coact-test-prompt","11","65697","0.0-11.0","p044","3","2","","","","","","21189","","","[""stims/images/alpaca.png"",""stims/images/raccoon.png"",""stims/images/rabbit.png"",""stims/images/wombat.png"",""stims/images/antelope.png"",""stims/images/koala.png"",""stims/images/pig.png"",""stims/images/tapir.png""]","wombat","stims/images/wombat.png","unfamiliar","pretest","3","","","","","","","","","","","","","","","","",""
"coact-test","12","69333","0.0-12.0","p044","3","2","","","","","","73450.38933333334","","","[""stims/images/alpaca.png"",""stims/images/raccoon.png"",""stims/images/rabbit.png"",""stims/images/wombat.png"",""stims/images/antelope.png"",""stims/images/koala.png"",""stims/images/pig.png"",""stims/images/tapir.png""]","wombat","","unfamiliar","pretest","3","stims/audio/find_wombat.wav","7","stims/images/tapir.png","0","","","","","","","","","","","","",""
"coact-test-prompt","13","71225","0.0-13.0","p044","3","2","","","","","","1891","","","[""stims/images/koala.png"",""stims/images/wombat.png"",""stims/images/rabbit.png"",""stims/images/pig.png"",""stims/images/tapir.png"",""stims/images/alpaca.png"",""stims/images/raccoon.png"",""stims/images/antelope.png""]","raccoon","stims/images/raccoon.png","somewhat familiar","pretest","3","","","","","","","","","","","","","","","","",""
"coact-test","14","76352","0.0-14.0","p044","3","2","","","","","","80464.864","","","[""stims/images/koala.png"",""stims/images/wombat.png"",""stims/images/rabbit.png"",""stims/images/pig.png"",""stims/images/tapir.png"",""stims/images/alpaca.png"",""stims/images/raccoon.png"",""stims/images/antelope.png""]","raccoon","","somewhat familiar","pretest","3","stims/audio/wheres_raccoon.wav","0","stims/images/koala.png","0","","","","","","","","","","","","",""
"coact-test-prompt","15","80287","0.0-15.0","p044","3","2","","","","","","3933.0000000000146","","","[""stims/images/wombat.png"",""stims/images/antelope.png"",""stims/images/koala.png"",""stims/images/pig.png"",""stims/images/alpaca.png"",""stims/images/rabbit.png"",""stims/images/tapir.png"",""stims/images/raccoon.png""]","pig","stims/images/pig.png","familiar","pretest","3","","","","","","","","","","","","","","","","",""
"coact-test","16","87219","0.0-16.0","p044","3","2","","","","","","91321.80266666667","","","[""stims/images/wombat.png"",""stims/images/antelope.png"",""stims/images/koala.png"",""stims/images/pig.png"",""stims/images/alpaca.png"",""stims/images/rabbit.png"",""stims/images/tapir.png"",""stims/images/raccoon.png""]","pig","","familiar","pretest","3","stims/audio/wheres_pig.wav","3","stims/images/pig.png","1","","","","","","","","","","","","",""
"coact-test-prompt","17","89508","0.0-17.0","p044","3","2","","","","","","2288","","","[""stims/images/koala.png"",""stims/images/raccoon.png"",""stims/images/antelope.png"",""stims/images/tapir.png"",""stims/images/wombat.png"",""stims/images/pig.png"",""stims/images/alpaca.png"",""stims/images/rabbit.png""]","antelope","stims/images/antelope.png","somewhat unfamiliar","pretest","3","","","","","","","","","","","","","","","","",""
"coact-test","18","93814","0.0-18.0","p044","3","2","","","","","","97908.58133333334","","","[""stims/images/koala.png"",""stims/images/raccoon.png"",""stims/images/antelope.png"",""stims/images/tapir.png"",""stims/images/wombat.png"",""stims/images/pig.png"",""stims/images/alpaca.png"",""stims/images/rabbit.png""]","antelope","","somewhat unfamiliar","pretest","3","stims/audio/wheres_antelope.wav","0","stims/images/koala.png","0","","","","","","","","","","","","",""
"coact-test-prompt","19","97404","0.0-19.0","p044","3","2","","","","","","3589","","","[""stims/images/alpaca.png"",""stims/images/antelope.png"",""stims/images/rabbit.png"",""stims/images/pig.png"",""stims/images/raccoon.png"",""stims/images/wombat.png"",""stims/images/koala.png"",""stims/images/tapir.png""]","koala","stims/images/koala.png","somewhat familiar","pretest","3","","","","","","","","","","","","","","","","",""
"coact-test","20","104072","0.0-20.0","p044","3","2","","","","","","108158.68533333333","","","[""stims/images/alpaca.png"",""stims/images/antelope.png"",""stims/images/rabbit.png"",""stims/images/pig.png"",""stims/images/raccoon.png"",""stims/images/wombat.png"",""stims/images/koala.png"",""stims/images/tapir.png""]","koala","","somewhat familiar","pretest","3","stims/audio/find_koala.wav","0","stims/images/alpaca.png","0","","","","","","","","","","","","",""
"coact-test-prompt","21","111086","0.0-21.0","p044","3","2","","","","","","7013","","","[""stims/images/pig.png"",""stims/images/wombat.png"",""stims/images/tapir.png"",""stims/images/koala.png"",""stims/images/alpaca.png"",""stims/images/rabbit.png"",""stims/images/antelope.png"",""stims/images/raccoon.png""]","alpaca","stims/images/alpaca.png","somewhat unfamiliar","pretest","3","","","","","","","","","","","","","","","","",""
"coact-test","22","114411","0.0-22.0","p044","3","2","","","","","","118485.00266666667","","","[""stims/images/pig.png"",""stims/images/wombat.png"",""stims/images/tapir.png"",""stims/images/koala.png"",""stims/images/alpaca.png"",""stims/images/rabbit.png"",""stims/images/antelope.png"",""stims/images/raccoon.png""]","alpaca","","somewhat unfamiliar","pretest","3","stims/audio/wheres_alpaca.wav","4","stims/images/alpaca.png","1","","","","","","","","","","","","",""
"html-button-response","23","131141","0.0-23.0","p044","3","2","","","","","","16726.999999999985","","0","","","","","","","","","","","","","","","","","","","","","","",""
"coact-grid","24","179024","0.0-24.0","p044","3","2","","","","","","46664","","","[""stims/images/frog.png"",""stims/images/duck.png"",""stims/images/butterfly.png"",""stims/images/wolf.png"",""stims/images/cow.png"",""stims/images/squirrel.png"",""stims/images/horse.png"",""stims/images/cat.png""]","","","","","familiar","","","","","[7,3]","[""stims/images/cat.png"",""stims/images/wolf.png""]","[""cat"",""wolf""]","[""stims/audio/thats_cat.wav"",""stims/audio/thats_wolf.wav""]","right","[""stims/images/wolf.png"",""stims/images/cat.png""]","[""stims/audio/thats_wolf.wav"",""stims/audio/thats_cat.wav""]","[""wolf"",""cat""]","active","0","","",""
"coact-grid-choice","25","181637","0.0-25.0","p044","3","2","","","","","","2611","","","[""stims/images/frog.png"",""stims/images/duck.png"",""stims/images/butterfly.png"",""stims/images/wolf.png"",""stims/images/cow.png"",""stims/images/squirrel.png"",""stims/images/horse.png"",""stims/images/cat.png""]","","","","","familiar","","","stims/images/cat.png","","","[""stims/images/cat.png"",""stims/images/wolf.png""]","","","","[""stims/images/wolf.png"",""stims/images/cat.png""]","[""stims/audio/thats_wolf.wav"",""stims/audio/thats_cat.wav""]","[""wolf"",""cat""]","passive","0","1","stims/audio/thats_cat.wav","[""stims/images/wolf.png"",""stims/images/cat.png""]"
"coact-grid-choice-audio","26","184647","0.0-26.0","p044","3","2","","","","","","3000","","","[""stims/images/frog.png"",""stims/images/duck.png"",""stims/images/butterfly.png"",""stims/images/wolf.png"",""stims/images/cow.png"",""stims/images/squirrel.png"",""stims/images/horse.png"",""stims/images/cat.png""]","","","","","familiar","","","stims/images/cat.png","","","","","","","","","","passive","0","","stims/audio/thats_cat.wav","[""stims/images/wolf.png"",""stims/images/cat.png""]"
"coact-grid","27","194290","0.0-27.0","p044","3","2","","","","","","8335.99999999997","","","[""stims/images/pig.png"",""stims/images/raccoon.png"",""stims/images/tapir.png"",""stims/images/rabbit.png"",""stims/images/alpaca.png"",""stims/images/wombat.png"",""stims/images/koala.png"",""stims/images/antelope.png""]","","","","","3","","","","","[5,4]","[""stims/images/wombat.png"",""stims/images/alpaca.png""]","[""wombat"",""alpaca""]","[""stims/audio/thats_wombat.wav"",""stims/audio/thats_alpaca.wav""]","right","[""stims/images/alpaca.png"",""stims/images/wombat.png""]","[""stims/audio/thats_alpaca.wav"",""stims/audio/thats_wombat.wav""]","[""alpaca"",""wombat""]","active","0","","",""
"coact-grid-choice","28","196228","0.0-28.0","p044","3","2","","","","","","1936","","","[""stims/images/pig.png"",""stims/images/raccoon.png"",""stims/images/tapir.png"",""stims/images/rabbit.png"",""stims/images/alpaca.png"",""stims/images/wombat.png"",""stims/images/koala.png"",""stims/images/antelope.png""]","","","","","3","","","stims/images/alpaca.png","","","[""stims/images/wombat.png"",""stims/images/alpaca.png""]","","","","[""stims/images/alpaca.png"",""stims/images/wombat.png""]","[""stims/audio/thats_alpaca.wav"",""stims/audio/thats_wombat.wav""]","[""alpaca"",""wombat""]","passive","0","0","stims/audio/thats_alpaca.wav","[""stims/images/alpaca.png"",""stims/images/wombat.png""]"
"coact-grid-choice-audio","29","199237","0.0-29.0","p044","3","2","","","","","","3000","","","[""stims/images/pig.png"",""stims/images/raccoon.png"",""stims/images/tapir.png"",""stims/images/rabbit.png"",""stims/images/alpaca.png"",""stims/images/wombat.png"",""stims/images/koala.png"",""stims/images/antelope.png""]","","","","","3","","","stims/images/alpaca.png","","","","","","","","","","passive","0","","stims/audio/thats_alpaca.wav","[""stims/images/alpaca.png"",""stims/images/wombat.png""]"
"coact-grid","30","207430","0.0-30.0","p044","3","2","","","","","","6886","","","[""stims/images/tapir.png"",""stims/images/antelope.png"",""stims/images/alpaca.png"",""stims/images/rabbit.png"",""stims/images/pig.png"",""stims/images/raccoon.png"",""stims/images/koala.png"",""stims/images/wombat.png""]","","","","","3","","","","","[1,0]","[""stims/images/antelope.png"",""stims/images/tapir.png""]","[""antelope"",""tapir""]","[""stims/audio/its_antelope.wav"",""stims/audio/its_tapir.wav""]","right","[""stims/images/tapir.png"",""stims/images/antelope.png""]","[""stims/audio/its_tapir.wav"",""stims/audio/its_antelope.wav""]","[""tapir"",""antelope""]","active","1","","",""
"coact-grid-choice","31","209319","0.0-31.0","p044","3","2","","","","","","1888.000000000029","","","[""stims/images/tapir.png"",""stims/images/antelope.png"",""stims/images/alpaca.png"",""stims/images/rabbit.png"",""stims/images/pig.png"",""stims/images/raccoon.png"",""stims/images/koala.png"",""stims/images/wombat.png""]","","","","","3","","","stims/images/antelope.png","","","[""stims/images/antelope.png"",""stims/images/tapir.png""]","","","","[""stims/images/tapir.png"",""stims/images/antelope.png""]","[""stims/audio/its_tapir.wav"",""stims/audio/its_antelope.wav""]","[""tapir"",""antelope""]","passive","1","1","stims/audio/its_antelope.wav","[""stims/images/tapir.png"",""stims/images/antelope.png""]"
"coact-grid-choice-audio","32","212329","0.0-32.0","p044","3","2","","","","","","3000","","","[""stims/images/tapir.png"",""stims/images/antelope.png"",""stims/images/alpaca.png"",""stims/images/rabbit.png"",""stims/images/pig.png"",""stims/images/raccoon.png"",""stims/images/koala.png"",""stims/images/wombat.png""]","","","","","3","","","stims/images/antelope.png","","","","","","","","","","passive","1","","stims/audio/its_antelope.wav","[""stims/images/tapir.png"",""stims/images/antelope.png""]"
"coact-grid","33","221511","0.0-33.0","p044","3","2","","","","","","7877","","","[""stims/images/raccoon.png"",""stims/images/wombat.png"",""stims/images/alpaca.png"",""stims/images/antelope.png"",""stims/images/pig.png"",""stims/images/rabbit.png"",""stims/images/tapir.png"",""stims/images/koala.png""]","","","","","3","","","","","[7,1]","[""stims/images/koala.png"",""stims/images/wombat.png""]","[""koala"",""wombat""]","[""stims/audio/thats_koala.wav"",""stims/audio/thats_wombat.wav""]","right","[""stims/images/wombat.png"",""stims/images/koala.png""]","[""stims/audio/thats_wombat.wav"",""stims/audio/thats_koala.wav""]","[""wombat"",""koala""]","active","2","","",""
"coact-grid-choice","34","223793","0.0-34.0","p044","3","2","","","","","","2281","","","[""stims/images/raccoon.png"",""stims/images/wombat.png"",""stims/images/alpaca.png"",""stims/images/antelope.png"",""stims/images/pig.png"",""stims/images/rabbit.png"",""stims/images/tapir.png"",""stims/images/koala.png""]","","","","","3","","","stims/images/wombat.png","","","[""stims/images/koala.png"",""stims/images/wombat.png""]","","","","[""stims/images/wombat.png"",""stims/images/koala.png""]","[""stims/audio/thats_wombat.wav"",""stims/audio/thats_koala.wav""]","[""wombat"",""koala""]","passive","2","0","stims/audio/thats_wombat.wav","[""stims/images/wombat.png"",""stims/images/koala.png""]"
"coact-grid-choice-audio","35","226801","0.0-35.0","p044","3","2","","","","","","3000","","","[""stims/images/raccoon.png"",""stims/images/wombat.png"",""stims/images/alpaca.png"",""stims/images/antelope.png"",""stims/images/pig.png"",""stims/images/rabbit.png"",""stims/images/tapir.png"",""stims/images/koala.png""]","","","","","3","","","stims/images/wombat.png","","","","","","","","","","passive","2","","stims/audio/thats_wombat.wav","[""stims/images/wombat.png"",""stims/images/koala.png""]"
"coact-grid","36","233618","0.0-36.0","p044","3","2","","","","","","5511","","","[""stims/images/pig.png"",""stims/images/tapir.png"",""stims/images/antelope.png"",""stims/images/rabbit.png"",""stims/images/koala.png"",""stims/images/wombat.png"",""stims/images/raccoon.png"",""stims/images/alpaca.png""]","","","","","3","","","","","[4,6]","[""stims/images/koala.png"",""stims/images/raccoon.png""]","[""koala"",""raccoon""]","[""stims/audio/thats_koala.wav"",""stims/audio/thats_raccoon.wav""]","left","[""stims/images/koala.png"",""stims/images/raccoon.png""]","[""stims/audio/thats_koala.wav"",""stims/audio/thats_raccoon.wav""]","[""koala"",""raccoon""]","active","3","","",""
"coact-grid-choice","37","235984","0.0-37.0","p044","3","2","","","","","","2365.000000000029","","","[""stims/images/pig.png"",""stims/images/tapir.png"",""stims/images/antelope.png"",""stims/images/rabbit.png"",""stims/images/koala.png"",""stims/images/wombat.png"",""stims/images/raccoon.png"",""stims/images/alpaca.png""]","","","","","3","","","stims/images/raccoon.png","","","[""stims/images/koala.png"",""stims/images/raccoon.png""]","","","","[""stims/images/koala.png"",""stims/images/raccoon.png""]","[""stims/audio/thats_koala.wav"",""stims/audio/thats_raccoon.wav""]","[""koala"",""raccoon""]","passive","3","1","stims/audio/thats_raccoon.wav","[""stims/images/koala.png"",""stims/images/raccoon.png""]"
"coact-grid-choice-audio","38","238992","0.0-38.0","p044","3","2","","","","","","3000","","","[""stims/images/pig.png"",""stims/images/tapir.png"",""stims/images/antelope.png"",""stims/images/rabbit.png"",""stims/images/koala.png"",""stims/images/wombat.png"",""stims/images/raccoon.png"",""stims/images/alpaca.png""]","","","","","3","","","stims/images/raccoon.png","","","","","","","","","","passive","3","","stims/audio/thats_raccoon.wav","[""stims/images/koala.png"",""stims/images/raccoon.png""]"
"coact-grid","39","247338","0.0-39.0","p044","3","2","","","","","","7034","","","[""stims/images/tapir.png"",""stims/images/pig.png"",""stims/images/raccoon.png"",""stims/images/wombat.png"",""stims/images/antelope.png"",""stims/images/alpaca.png"",""stims/images/koala.png"",""stims/images/rabbit.png""]","","","","","3","","","","","[6,1]","[""stims/images/koala.png"",""stims/images/pig.png""]","[""koala"",""pig""]","[""stims/audio/its_koala.wav"",""stims/audio/its_pig.wav""]","left","[""stims/images/koala.png"",""stims/images/pig.png""]","[""stims/audio/its_koala.wav"",""stims/audio/its_pig.wav""]","[""koala"",""pig""]","active","4","","",""
"coact-grid-choice","40","249225","0.0-40.0","p044","3","2","","","","","","1883.999999999971","","","[""stims/images/tapir.png"",""stims/images/pig.png"",""stims/images/raccoon.png"",""stims/images/wombat.png"",""stims/images/antelope.png"",""stims/images/alpaca.png"",""stims/images/koala.png"",""stims/images/rabbit.png""]","","","","","3","","","stims/images/pig.png","","","[""stims/images/koala.png"",""stims/images/pig.png""]","","","","[""stims/images/koala.png"",""stims/images/pig.png""]","[""stims/audio/its_koala.wav"",""stims/audio/its_pig.wav""]","[""koala"",""pig""]","passive","4","1","stims/audio/its_pig.wav","[""stims/images/koala.png"",""stims/images/pig.png""]"
"coact-grid-choice-audio","41","252239","0.0-41.0","p044","3","2","","","","","","3000","","","[""stims/images/tapir.png"",""stims/images/pig.png"",""stims/images/raccoon.png"",""stims/images/wombat.png"",""stims/images/antelope.png"",""stims/images/alpaca.png"",""stims/images/koala.png"",""stims/images/rabbit.png""]","","","","","3","","","stims/images/pig.png","","","","","","","","","","passive","4","","stims/audio/its_pig.wav","[""stims/images/koala.png"",""stims/images/pig.png""]"
"coact-grid","42","265362","0.0-42.0","p044","3","2","","","","","","11817.00000000003","","","[""stims/images/alpaca.png"",""stims/images/koala.png"",""stims/images/tapir.png"",""stims/images/rabbit.png"",""stims/images/wombat.png"",""stims/images/antelope.png"",""stims/images/raccoon.png"",""stims/images/pig.png""]","","","","","3","","","","","[1,3]","[""stims/images/koala.png"",""stims/images/rabbit.png""]","[""koala"",""rabbit""]","[""stims/audio/its_koala.wav"",""stims/audio/its_rabbit.wav""]","left","[""stims/images/koala.png"",""stims/images/rabbit.png""]","[""stims/audio/its_koala.wav"",""stims/audio/its_rabbit.wav""]","[""koala"",""rabbit""]","active","5","","",""
"coact-grid-choice","43","267819","0.0-43.0","p044","3","2","","","","","","2455.000000000058","","","[""stims/images/alpaca.png"",""stims/images/koala.png"",""stims/images/tapir.png"",""stims/images/rabbit.png"",""stims/images/wombat.png"",""stims/images/antelope.png"",""stims/images/raccoon.png"",""stims/images/pig.png""]","","","","","3","","","stims/images/rabbit.png","","","[""stims/images/koala.png"",""stims/images/rabbit.png""]","","","","[""stims/images/koala.png"",""stims/images/rabbit.png""]","[""stims/audio/its_koala.wav"",""stims/audio/its_rabbit.wav""]","[""koala"",""rabbit""]","passive","5","1","stims/audio/its_rabbit.wav","[""stims/images/koala.png"",""stims/images/rabbit.png""]"
"coact-grid-choice-audio","44","270827","0.0-44.0","p044","3","2","","","","","","3000","","","[""stims/images/alpaca.png"",""stims/images/koala.png"",""stims/images/tapir.png"",""stims/images/rabbit.png"",""stims/images/wombat.png"",""stims/images/antelope.png"",""stims/images/raccoon.png"",""stims/images/pig.png""]","","","","","3","","","stims/images/rabbit.png","","","","","","","","","","passive","5","","stims/audio/its_rabbit.wav","[""stims/images/koala.png"",""stims/images/rabbit.png""]"
"html-button-response","45","285117","0.0-45.0","p044","3","2","","","","","","14288","","0","","","","","","","","","","","","","","","","","","","","","","",""
"coact-test-prompt","46","286870","0.0-46.0","p044","3","2","","","","","","1752","","","[""stims/images/cow.png"",""stims/images/duck.png"",""stims/images/squirrel.png"",""stims/images/cat.png"",""stims/images/butterfly.png"",""stims/images/wolf.png"",""stims/images/horse.png"",""stims/images/frog.png""]","duck","stims/images/duck.png","familiar","practice_posttest","familiar","","","","","","","","","","","","","","","","",""
"coact-test","47","294093","0.0-47.0","p044","3","2","","","","","","298089.1306666667","","","[""stims/images/cow.png"",""stims/images/duck.png"",""stims/images/squirrel.png"",""stims/images/cat.png"",""stims/images/butterfly.png"",""stims/images/wolf.png"",""stims/images/horse.png"",""stims/images/frog.png""]","duck","","familiar","practice_posttest","familiar","stims/audio/wheres_duck.wav","1","stims/images/duck.png","1","","","","","","","","","","","","",""
"coact-test-prompt","48","297591","0.0-48.0","p044","3","2","","","","","","3497.000000000058","","","[""stims/images/cat.png"",""stims/images/horse.png"",""stims/images/wolf.png"",""stims/images/frog.png"",""stims/images/duck.png"",""stims/images/cow.png"",""stims/images/squirrel.png"",""stims/images/butterfly.png""]","horse","stims/images/horse.png","familiar","practice_posttest","familiar","","","","","","","","","","","","","","","","",""
"coact-test","49","300593","0.0-49.0","p044","3","2","","","","","","304579.408","","","[""stims/images/cat.png"",""stims/images/horse.png"",""stims/images/wolf.png"",""stims/images/frog.png"",""stims/images/duck.png"",""stims/images/cow.png"",""stims/images/squirrel.png"",""stims/images/butterfly.png""]","horse","","familiar","practice_posttest","familiar","stims/audio/find_horse.wav","1","stims/images/horse.png","1","","","","","","","","","","","","",""
"coact-test-prompt","50","304409","0.0-50.0","p044","3","2","","","","","","3814","","","[""stims/images/wombat.png"",""stims/images/raccoon.png"",""stims/images/tapir.png"",""stims/images/pig.png"",""stims/images/alpaca.png"",""stims/images/koala.png"",""stims/images/rabbit.png"",""stims/images/antelope.png""]","raccoon","stims/images/raccoon.png","somewhat familiar","posttest","3","","","","","","","","","","","","","","","","",""
"coact-test","51","309633","0.0-51.0","p044","3","2","","","","","","313611.592","","","[""stims/images/wombat.png"",""stims/images/raccoon.png"",""stims/images/tapir.png"",""stims/images/pig.png"",""stims/images/alpaca.png"",""stims/images/koala.png"",""stims/images/rabbit.png"",""stims/images/antelope.png""]","raccoon","","somewhat familiar","posttest","3","stims/audio/wheres_raccoon.wav","1","stims/images/raccoon.png","1","","","","","","","","","","","","",""
"coact-test-prompt","52","312093","0.0-52.0","p044","3","2","","","","","","2459","","","[""stims/images/wombat.png"",""stims/images/rabbit.png"",""stims/images/alpaca.png"",""stims/images/raccoon.png"",""stims/images/pig.png"",""stims/images/koala.png"",""stims/images/antelope.png"",""stims/images/tapir.png""]","rabbit","stims/images/rabbit.png","familiar","posttest","3","","","","","","","","","","","","","","","","",""
"coact-test","53","314761","0.0-53.0","p044","3","2","","","","","","318733.9066666667","","","[""stims/images/wombat.png"",""stims/images/rabbit.png"",""stims/images/alpaca.png"",""stims/images/raccoon.png"",""stims/images/pig.png"",""stims/images/koala.png"",""stims/images/antelope.png"",""stims/images/tapir.png""]","rabbit","","familiar","posttest","3","stims/audio/find_rabbit.wav","1","stims/images/rabbit.png","1","","","","","","","","","","","","",""
"coact-test-prompt","54","319797","0.0-54.0","p044","3","2","","","","","","5033","","","[""stims/images/koala.png"",""stims/images/raccoon.png"",""stims/images/wombat.png"",""stims/images/antelope.png"",""stims/images/alpaca.png"",""stims/images/rabbit.png"",""stims/images/tapir.png"",""stims/images/pig.png""]","alpaca","stims/images/alpaca.png","somewhat unfamiliar","posttest","3","","","","","","","","","","","","","","","","",""
"coact-test","55","326251","0.0-55.0","p044","3","2","","","","","","330217.2026666667","","","[""stims/images/koala.png"",""stims/images/raccoon.png"",""stims/images/wombat.png"",""stims/images/antelope.png"",""stims/images/alpaca.png"",""stims/images/rabbit.png"",""stims/images/tapir.png"",""stims/images/pig.png""]","alpaca","","somewhat unfamiliar","posttest","3","stims/audio/wheres_alpaca.wav","0","stims/images/koala.png","0","","","","","","","","","","","","",""
"coact-test-prompt","56","328133","0.0-56.0","p044","3","2","","","","","","1881","","","[""stims/images/rabbit.png"",""stims/images/koala.png"",""stims/images/pig.png"",""stims/images/tapir.png"",""stims/images/raccoon.png"",""stims/images/alpaca.png"",""stims/images/antelope.png"",""stims/images/wombat.png""]","antelope","stims/images/antelope.png","somewhat unfamiliar","posttest","3","","","","","","","","","","","","","","","","",""
"coact-test","57","332129","0.0-57.0","p044","3","2","","","","","","336087.86666666664","","","[""stims/images/rabbit.png"",""stims/images/koala.png"",""stims/images/pig.png"",""stims/images/tapir.png"",""stims/images/raccoon.png"",""stims/images/alpaca.png"",""stims/images/antelope.png"",""stims/images/wombat.png""]","antelope","","somewhat unfamiliar","posttest","3","stims/audio/find_antelope.wav","1","stims/images/koala.png","0","","","","","","","","","","","","",""
"coact-test-prompt","58","338620","0.0-58.0","p044","3","2","","","","","","6490","","","[""stims/images/rabbit.png"",""stims/images/tapir.png"",""stims/images/wombat.png"",""stims/images/pig.png"",""stims/images/antelope.png"",""stims/images/raccoon.png"",""stims/images/alpaca.png"",""stims/images/koala.png""]","koala","stims/images/koala.png","somewhat familiar","posttest","3","","","","","","","","","","","","","","","","",""
"coact-test","59","344829","0.0-59.0","p044","3","2","","","","","","348776.3813333333","","","[""stims/images/rabbit.png"",""stims/images/tapir.png"",""stims/images/wombat.png"",""stims/images/pig.png"",""stims/images/antelope.png"",""stims/images/raccoon.png"",""stims/images/alpaca.png"",""stims/images/koala.png""]","koala","","somewhat familiar","posttest","3","stims/audio/wheres_koala.wav","7","stims/images/koala.png","1","","","","","","","","","","","","",""
"coact-test-prompt","60","348051","0.0-60.0","p044","3","2","","","","","","3222.000000000058","","","[""stims/images/raccoon.png"",""stims/images/tapir.png"",""stims/images/rabbit.png"",""stims/images/antelope.png"",""stims/images/wombat.png"",""stims/images/koala.png"",""stims/images/alpaca.png"",""stims/images/pig.png""]","wombat","stims/images/wombat.png","unfamiliar","posttest","3","","","","","","","","","","","","","","","","",""
"coact-test","61","360517","0.0-61.0","p044","3","2","","","","","","364457.94933333335","","","[""stims/images/raccoon.png"",""stims/images/tapir.png"",""stims/images/rabbit.png"",""stims/images/antelope.png"",""stims/images/wombat.png"",""stims/images/koala.png"",""stims/images/alpaca.png"",""stims/images/pig.png""]","wombat","","unfamiliar","posttest","3","stims/audio/find_wombat.wav","1","stims/images/tapir.png","0","","","","","","","","","","","","",""
"coact-test-prompt","62","364056","0.0-62.0","p044","3","2","","","","","","3538","","","[""stims/images/pig.png"",""stims/images/koala.png"",""stims/images/alpaca.png"",""stims/images/antelope.png"",""stims/images/rabbit.png"",""stims/images/wombat.png"",""stims/images/tapir.png"",""stims/images/raccoon.png""]","pig","stims/images/pig.png","familiar","posttest","3","","","","","","","","","","","","","","","","",""
"coact-test","63","368399","0.0-63.0","p044","3","2","","","","","","372322.944","","","[""stims/images/pig.png"",""stims/images/koala.png"",""stims/images/alpaca.png"",""stims/images/antelope.png"",""stims/images/rabbit.png"",""stims/images/wombat.png"",""stims/images/tapir.png"",""stims/images/raccoon.png""]","pig","","familiar","posttest","3","stims/audio/wheres_pig.wav","0","stims/images/pig.png","1","","","","","","","","","","","","",""
"coact-test-prompt","64","372325","0.0-64.0","p044","3","2","","","","","","3924.000000000058","","","[""stims/images/raccoon.png"",""stims/images/antelope.png"",""stims/images/rabbit.png"",""stims/images/alpaca.png"",""stims/images/wombat.png"",""stims/images/koala.png"",""stims/images/pig.png"",""stims/images/tapir.png""]","tapir","stims/images/tapir.png","unfamiliar","posttest","3","","","","","","","","","","","","","","","","",""
"coact-test","65","376514","0.0-65.0","p044","3","2","","","","","","380429.67466666666","","","[""stims/images/raccoon.png"",""stims/images/antelope.png"",""stims/images/rabbit.png"",""stims/images/alpaca.png"",""stims/images/wombat.png"",""stims/images/koala.png"",""stims/images/pig.png"",""stims/images/tapir.png""]","tapir","","unfamiliar","posttest","3","stims/audio/find_tapir.wav","5","stims/images/koala.png","0","","","","","","","","","","","","",""
