"trial_type","trial_index","time_elapsed","internal_node_id","subject_id","round_name","round_index","success","timeout","failed_images","failed_audio","failed_video","rt","stimulus","response","images","target","target_image","target_type","round_type","set","test_audio","choice","chosen_image","correct","choices","chosen_images","chosen_items","chosen_audio_items","first_choice_location","chosen_images_in_order","chosen_audio_in_order","chosen_items_in_order","condition","sample_num","chosen_index","chosen_audio","central_images"
"pavlovia","0","4","0.0-0.0","p012","1","0","","","","","","","","","","","","","","","","","","","","","","","","","","","","","","",""
"preload","1","282","0.0-1.0","p012","1","0","true","false","[]","[]","[]","","","","","","","","","","","","","","","","","","","","","","","","","",""
"html-button-response","2","59315","0.0-2.0","p012","1","0","","","","","","59036","","0","","","","","","","","","","","","","","","","","","","","","","",""
"coact-test-prompt","3","62937","0.0-3.0","p012","1","0","","","","","","3619","","","[""stims/images/butterfly.png"",""stims/images/horse.png"",""stims/images/frog.png"",""stims/images/cat.png"",""stims/images/squirrel.png"",""stims/images/wolf.png"",""stims/images/cow.png"",""stims/images/duck.png""]","cow","stims/images/cow.png","familiar","practice_pretest","familiar","","","","","","","","","","","","","","","","",""
"coact-test","4","66812","0.0-4.0","p012","1","0","","","","","","229753.304","","","[""stims/images/butterfly.png"",""stims/images/horse.png"",""stims/images/frog.png"",""stims/images/cat.png"",""stims/images/squirrel.png"",""stims/images/wolf.png"",""stims/images/cow.png"",""stims/images/duck.png""]","cow","","familiar","practice_pretest","familiar","stims/audio/wheres_cow.wav","6","stims/images/cow.png","1","","","","","","","","","","","","",""
"coact-test-prompt","5","68553","0.0-5.0","p012","1","0","","","","","","1740.999999999971","","","[""stims/images/wolf.png"",""stims/images/squirrel.png"",""stims/images/butterfly.png"",""stims/images/cow.png"",""stims/images/duck.png"",""stims/images/frog.png"",""stims/images/horse.png"",""stims/images/cat.png""]","wolf","stims/images/wolf.png","familiar","practice_pretest","familiar","","","","","","","","","","","","","","","","",""
"coact-test","6","72358","0.0-6.0","p012","1","0","","","","","","235294.68533333333","","","[""stims/images/wolf.png"",""stims/images/squirrel.png"",""stims/images/butterfly.png"",""stims/images/cow.png"",""stims/images/duck.png"",""stims/images/frog.png"",""stims/images/horse.png"",""stims/images/cat.png""]","wolf","","familiar","practice_pretest","familiar","stims/audio/wheres_wolf.wav","0","stims/images/wolf.png","1","","","","","","","","","","","","",""
"coact-test-prompt","7","74088","0.0-7.0","p012","1","0","","","","","","1728","","","[""stims/images/narwhal.png"",""stims/images/tarsier.png"",""stims/images/lobster.png"",""stims/images/zebra.png"",""stims/images/sloth.png"",""stims/images/armadillo.png"",""stims/images/dolphin.png"",""stims/images/dog.png""]","dolphin","stims/images/dolphin.png","somewhat familiar","pretest","1","","","","","","","","","","","","","","","","",""
"coact-test","8","77738","0.0-8.0","p012","1","0","","","","","","240670.152","","","[""stims/images/narwhal.png"",""stims/images/tarsier.png"",""stims/images/lobster.png"",""stims/images/zebra.png"",""stims/images/sloth.png"",""stims/images/armadillo.png"",""stims/images/dolphin.png"",""stims/images/dog.png""]","dolphin","","somewhat familiar","pretest","1","stims/audio/wheres_dolphin.wav","6","stims/images/dolphin.png","1","","","","","","","","","","","","",""
"coact-test-prompt","9","79317","0.0-9.0","p012","1","0","","","","","","1577","","","[""stims/images/dolphin.png"",""stims/images/lobster.png"",""stims/images/tarsier.png"",""stims/images/armadillo.png"",""stims/images/zebra.png"",""stims/images/dog.png"",""stims/images/sloth.png"",""stims/images/narwhal.png""]","armadillo","stims/images/armadillo.png","somewhat unfamiliar","pretest","1","","","","","","","","","","","","","","","","",""
"coact-test","10","92349","0.0-10.0","p012","1","0","","","","","","255275.9226666667","","","[""stims/images/dolphin.png"",""stims/images/lobster.png"",""stims/images/tarsier.png"",""stims/images/armadillo.png"",""stims/images/zebra.png"",""stims/images/dog.png"",""stims/images/sloth.png"",""stims/images/narwhal.png""]","armadillo","","somewhat unfamiliar","pretest","1","stims/audio/wheres_armadillo.wav","3","stims/images/armadillo.png","1","","","","","","","","","","","","",""
"coact-test-prompt","11","94985","0.0-11.0","p012","1","0","","","","","","2635","","","[""stims/images/sloth.png"",""stims/images/dog.png"",""stims/images/dolphin.png"",""stims/images/armadillo.png"",""stims/images/zebra.png"",""stims/images/lobster.png"",""stims/images/tarsier.png"",""stims/images/narwhal.png""]","dog","stims/images/dog.png","familiar","pretest","1","","","","","","","","","","","","","","","","",""
"coact-test","12","97754","0.0-12.0","p012","1","0","","","","","","260665.256","","","[""stims/images/sloth.png"",""stims/images/dog.png"",""stims/images/dolphin.png"",""stims/images/armadillo.png"",""stims/images/zebra.png"",""stims/images/lobster.png"",""stims/images/tarsier.png"",""stims/images/narwhal.png""]","dog","","familiar","pretest","1","stims/audio/find_dog.wav","1","stims/images/dog.png","1","","","","","","","","","","","","",""
"coact-test-prompt","13","99796","0.0-13.0","p012","1","0","","","","","","2040.0000000000582","","","[""stims/images/dolphin.png"",""stims/images/tarsier.png"",""stims/images/narwhal.png"",""stims/images/dog.png"",""stims/images/zebra.png"",""stims/images/sloth.png"",""stims/images/armadillo.png"",""stims/images/lobster.png""]","zebra","stims/images/zebra.png","familiar","pretest","1","","","","","","","","","","","","","","","","",""
"coact-test","14","103832","0.0-14.0","p012","1","0","","","","","","266739.44533333334","","","[""stims/images/dolphin.png"",""stims/images/tarsier.png"",""stims/images/narwhal.png"",""stims/images/dog.png"",""stims/images/zebra.png"",""stims/images/sloth.png"",""stims/images/armadillo.png"",""stims/images/lobster.png""]","zebra","","familiar","pretest","1","stims/audio/find_zebra.wav","4","stims/images/zebra.png","1","","","","","","","","","","","","",""
"coact-test-prompt","15","105233","0.0-15.0","p012","1","0","","","","","","1399","","","[""stims/images/tarsier.png"",""stims/images/dog.png"",""stims/images/zebra.png"",""stims/images/lobster.png"",""stims/images/narwhal.png"",""stims/images/sloth.png"",""stims/images/armadillo.png"",""stims/images/dolphin.png""]","sloth","stims/images/sloth.png","somewhat unfamiliar","pretest","1","","","","","","","","","","","","","","","","",""
"coact-test","16","118765","0.0-16.0","p012","1","0","","","","","","281668.008","","","[""stims/images/tarsier.png"",""stims/images/dog.png"",""stims/images/zebra.png"",""stims/images/lobster.png"",""stims/images/narwhal.png"",""stims/images/sloth.png"",""stims/images/armadillo.png"",""stims/images/dolphin.png""]","sloth","","somewhat unfamiliar","pretest","1","stims/audio/wheres_sloth.wav","5","stims/images/sloth.png","1","","","","","","","","","","","","",""
"coact-test-prompt","17","120308","0.0-17.0","p012","1","0","","","","","","1541","","","[""stims/images/zebra.png"",""stims/images/armadillo.png"",""stims/images/lobster.png"",""stims/images/dolphin.png"",""stims/images/narwhal.png"",""stims/images/dog.png"",""stims/images/sloth.png"",""stims/images/tarsier.png""]","narwhal","stims/images/narwhal.png","unfamiliar","pretest","1","","","","","","","","","","","","","","","","",""
"coact-test","18","124944","0.0-18.0","p012","1","0","","","","","","287832.9333333334","","","[""stims/images/zebra.png"",""stims/images/armadillo.png"",""stims/images/lobster.png"",""stims/images/dolphin.png"",""stims/images/narwhal.png"",""stims/images/dog.png"",""stims/images/sloth.png"",""stims/images/tarsier.png""]","narwhal","","unfamiliar","pretest","1","stims/audio/find_narwhal.wav","4","stims/images/narwhal.png","1","","","","","","","","","","","","",""
"coact-test-prompt","19","127153","0.0-19.0","p012","1","0","","","","","","2208","","","[""stims/images/sloth.png"",""stims/images/narwhal.png"",""stims/images/dolphin.png"",""stims/images/tarsier.png"",""stims/images/armadillo.png"",""stims/images/zebra.png"",""stims/images/dog.png"",""stims/images/lobster.png""]","tarsier","stims/images/tarsier.png","unfamiliar","pretest","1","","","","","","","","","","","","","","","","",""
"coact-test","20","136927","0.0-20.0","p012","1","0","","","","","","299809.088","","","[""stims/images/sloth.png"",""stims/images/narwhal.png"",""stims/images/dolphin.png"",""stims/images/tarsier.png"",""stims/images/armadillo.png"",""stims/images/zebra.png"",""stims/images/dog.png"",""stims/images/lobster.png""]","tarsier","","unfamiliar","pretest","1","stims/audio/wheres_tarsier.wav","3","stims/images/tarsier.png","1","","","","","","","","","","","","",""
"coact-test-prompt","21","138217","0.0-21.0","p012","1","0","","","","","","1289","","","[""stims/images/dolphin.png"",""stims/images/armadillo.png"",""stims/images/tarsier.png"",""stims/images/narwhal.png"",""stims/images/sloth.png"",""stims/images/dog.png"",""stims/images/zebra.png"",""stims/images/lobster.png""]","lobster","stims/images/lobster.png","somewhat familiar","pretest","1","","","","","","","","","","","","","","","","",""
"coact-test","22","141314","0.0-22.0","p012","1","0","","","","","","304185.02133333334","","","[""stims/images/dolphin.png"",""stims/images/armadillo.png"",""stims/images/tarsier.png"",""stims/images/narwhal.png"",""stims/images/sloth.png"",""stims/images/dog.png"",""stims/images/zebra.png"",""stims/images/lobster.png""]","lobster","","somewhat familiar","pretest","1","stims/audio/find_lobster.wav","7","stims/images/lobster.png","1","","","","","","","","","","","","",""
"html-button-response","23","163598","0.0-23.0","p012","1","0","","","","","","22283","","0","","","","","","","","","","","","","","","","","","","","","","",""
"coact-grid","24","174463","0.0-24.0","p012","1","0","","","","","","9555","","","[""stims/images/frog.png"",""stims/images/cat.png"",""stims/images/wolf.png"",""stims/images/cow.png"",""stims/images/duck.png"",""stims/images/horse.png"",""stims/images/butterfly.png"",""stims/images/squirrel.png""]","","","","","familiar","","","","","[5,6]","[""stims/images/horse.png"",""stims/images/butterfly.png""]","[""horse"",""butterfly""]","[""stims/audio/its_horse.wav"",""stims/audio/its_butterfly.wav""]","right","[""stims/images/butterfly.png"",""stims/images/horse.png""]","[""stims/audio/its_butterfly.wav"",""stims/audio/its_horse.wav""]","[""butterfly"",""horse""]","active","0","","",""
"coact-grid-choice","25","177084","0.0-25.0","p012","1","0","","","","","","2619.999999999942","","","[""stims/images/frog.png"",""stims/images/cat.png"",""stims/images/wolf.png"",""stims/images/cow.png"",""stims/images/duck.png"",""stims/images/horse.png"",""stims/images/butterfly.png"",""stims/images/squirrel.png""]","","","","","familiar","","","stims/images/butterfly.png","","","[""stims/images/horse.png"",""stims/images/butterfly.png""]","","","","[""stims/images/butterfly.png"",""stims/images/horse.png""]","[""stims/audio/its_butterfly.wav"",""stims/audio/its_horse.wav""]","[""butterfly"",""horse""]","passive","0","0","stims/audio/its_butterfly.wav","[""stims/images/butterfly.png"",""stims/images/horse.png""]"
"coact-grid-choice-audio","26","180097","0.0-26.0","p012","1","0","","","","","","3000","","","[""stims/images/frog.png"",""stims/images/cat.png"",""stims/images/wolf.png"",""stims/images/cow.png"",""stims/images/duck.png"",""stims/images/horse.png"",""stims/images/butterfly.png"",""stims/images/squirrel.png""]","","","","","familiar","","","stims/images/butterfly.png","","","","","","","","","","passive","0","","stims/audio/its_butterfly.wav","[""stims/images/butterfly.png"",""stims/images/horse.png""]"
"coact-grid","27","189444","0.0-27.0","p012","1","0","","","","","","8041","","","[""stims/images/dolphin.png"",""stims/images/tarsier.png"",""stims/images/armadillo.png"",""stims/images/narwhal.png"",""stims/images/sloth.png"",""stims/images/dog.png"",""stims/images/zebra.png"",""stims/images/lobster.png""]","","","","","1","","","","","[1,4]","[""stims/images/tarsier.png"",""stims/images/sloth.png""]","[""tarsier"",""sloth""]","[""stims/audio/its_tarsier.wav"",""stims/audio/its_sloth.wav""]","left","[""stims/images/tarsier.png"",""stims/images/sloth.png""]","[""stims/audio/its_tarsier.wav"",""stims/audio/its_sloth.wav""]","[""tarsier"",""sloth""]","active","0","","",""
"coact-grid-choice","28","191792","0.0-28.0","p012","1","0","","","","","","2346","","","[""stims/images/dolphin.png"",""stims/images/tarsier.png"",""stims/images/armadillo.png"",""stims/images/narwhal.png"",""stims/images/sloth.png"",""stims/images/dog.png"",""stims/images/zebra.png"",""stims/images/lobster.png""]","","","","","1","","","stims/images/sloth.png","","","[""stims/images/tarsier.png"",""stims/images/sloth.png""]","","","","[""stims/images/tarsier.png"",""stims/images/sloth.png""]","[""stims/audio/its_tarsier.wav"",""stims/audio/its_sloth.wav""]","[""tarsier"",""sloth""]","passive","0","1","stims/audio/its_sloth.wav","[""stims/images/tarsier.png"",""stims/images/sloth.png""]"
"coact-grid-choice-audio","29","194799","0.0-29.0","p012","1","0","","","","","","3000","","","[""stims/images/dolphin.png"",""stims/images/tarsier.png"",""stims/images/armadillo.png"",""stims/images/narwhal.png"",""stims/images/sloth.png"",""stims/images/dog.png"",""stims/images/zebra.png"",""stims/images/lobster.png""]","","","","","1","","","stims/images/sloth.png","","","","","","","","","","passive","0","","stims/audio/its_sloth.wav","[""stims/images/tarsier.png"",""stims/images/sloth.png""]"
"coact-grid","30","201483","0.0-30.0","p012","1","0","","","","","","5378","","","[""stims/images/dog.png"",""stims/images/armadillo.png"",""stims/images/zebra.png"",""stims/images/lobster.png"",""stims/images/narwhal.png"",""stims/images/dolphin.png"",""stims/images/sloth.png"",""stims/images/tarsier.png""]","","","","","1","","","","","[1,3]","[""stims/images/armadillo.png"",""stims/images/lobster.png""]","[""armadillo"",""lobster""]","[""stims/audio/thats_armadillo.wav"",""stims/audio/thats_lobster.wav""]","left","[""stims/images/armadillo.png"",""stims/images/lobster.png""]","[""stims/audio/thats_armadillo.wav"",""stims/audio/thats_lobster.wav""]","[""armadillo"",""lobster""]","active","1","","",""
"coact-grid-choice","31","202981","0.0-31.0","p012","1","0","","","","","","1498","","","[""stims/images/dog.png"",""stims/images/armadillo.png"",""stims/images/zebra.png"",""stims/images/lobster.png"",""stims/images/narwhal.png"",""stims/images/dolphin.png"",""stims/images/sloth.png"",""stims/images/tarsier.png""]","","","","","1","","","stims/images/armadillo.png","","","[""stims/images/armadillo.png"",""stims/images/lobster.png""]","","","","[""stims/images/armadillo.png"",""stims/images/lobster.png""]","[""stims/audio/thats_armadillo.wav"",""stims/audio/thats_lobster.wav""]","[""armadillo"",""lobster""]","passive","1","0","stims/audio/thats_armadillo.wav","[""stims/images/armadillo.png"",""stims/images/lobster.png""]"
"coact-grid-choice-audio","32","205990","0.0-32.0","p012","1","0","","","","","","3000","","","[""stims/images/dog.png"",""stims/images/armadillo.png"",""stims/images/zebra.png"",""stims/images/lobster.png"",""stims/images/narwhal.png"",""stims/images/dolphin.png"",""stims/images/sloth.png"",""stims/images/tarsier.png""]","","","","","1","","","stims/images/armadillo.png","","","","","","","","","","passive","1","","stims/audio/thats_armadillo.wav","[""stims/images/armadillo.png"",""stims/images/lobster.png""]"
"coact-grid","33","215904","0.0-33.0","p012","1","0","","","","","","8605","","","[""stims/images/dog.png"",""stims/images/tarsier.png"",""stims/images/zebra.png"",""stims/images/narwhal.png"",""stims/images/dolphin.png"",""stims/images/sloth.png"",""stims/images/lobster.png"",""stims/images/armadillo.png""]","","","","","1","","","","","[1,4]","[""stims/images/tarsier.png"",""stims/images/dolphin.png""]","[""tarsier"",""dolphin""]","[""stims/audio/its_tarsier.wav"",""stims/audio/its_dolphin.wav""]","right","[""stims/images/dolphin.png"",""stims/images/tarsier.png""]","[""stims/audio/its_dolphin.wav"",""stims/audio/its_tarsier.wav""]","[""dolphin"",""tarsier""]","active","2","","",""
"coact-grid-choice","34","227029","0.0-34.0","p012","1","0","","","","","","11122","","","[""stims/images/dog.png"",""stims/images/tarsier.png"",""stims/images/zebra.png"",""stims/images/narwhal.png"",""stims/images/dolphin.png"",""stims/images/sloth.png"",""stims/images/lobster.png"",""stims/images/armadillo.png""]","","","","","1","","","stims/images/dolphin.png","","","[""stims/images/tarsier.png"",""stims/images/dolphin.png""]","","","","[""stims/images/dolphin.png"",""stims/images/tarsier.png""]","[""stims/audio/its_dolphin.wav"",""stims/audio/its_tarsier.wav""]","[""dolphin"",""tarsier""]","passive","2","0","stims/audio/its_dolphin.wav","[""stims/images/dolphin.png"",""stims/images/tarsier.png""]"
"coact-grid-choice-audio","35","230038","0.0-35.0","p012","1","0","","","","","","3003","","","[""stims/images/dog.png"",""stims/images/tarsier.png"",""stims/images/zebra.png"",""stims/images/narwhal.png"",""stims/images/dolphin.png"",""stims/images/sloth.png"",""stims/images/lobster.png"",""stims/images/armadillo.png""]","","","","","1","","","stims/images/dolphin.png","","","","","","","","","","passive","2","","stims/audio/its_dolphin.wav","[""stims/images/dolphin.png"",""stims/images/tarsier.png""]"
"coact-grid","36","240489","0.0-36.0","p012","1","0","","","","","","9144","","","[""stims/images/narwhal.png"",""stims/images/armadillo.png"",""stims/images/tarsier.png"",""stims/images/lobster.png"",""stims/images/dolphin.png"",""stims/images/sloth.png"",""stims/images/zebra.png"",""stims/images/dog.png""]","","","","","1","","","","","[7,2]","[""stims/images/dog.png"",""stims/images/tarsier.png""]","[""dog"",""tarsier""]","[""stims/audio/its_dog.wav"",""stims/audio/its_tarsier.wav""]","right","[""stims/images/tarsier.png"",""stims/images/dog.png""]","[""stims/audio/its_tarsier.wav"",""stims/audio/its_dog.wav""]","[""tarsier"",""dog""]","active","3","","",""
"coact-grid-choice","37","242137","0.0-37.0","p012","1","0","","","","","","1647","","","[""stims/images/narwhal.png"",""stims/images/armadillo.png"",""stims/images/tarsier.png"",""stims/images/lobster.png"",""stims/images/dolphin.png"",""stims/images/sloth.png"",""stims/images/zebra.png"",""stims/images/dog.png""]","","","","","1","","","stims/images/tarsier.png","","","[""stims/images/dog.png"",""stims/images/tarsier.png""]","","","","[""stims/images/tarsier.png"",""stims/images/dog.png""]","[""stims/audio/its_tarsier.wav"",""stims/audio/its_dog.wav""]","[""tarsier"",""dog""]","passive","3","0","stims/audio/its_tarsier.wav","[""stims/images/tarsier.png"",""stims/images/dog.png""]"
"coact-grid-choice-audio","38","245146","0.0-38.0","p012","1","0","","","","","","3000","","","[""stims/images/narwhal.png"",""stims/images/armadillo.png"",""stims/images/tarsier.png"",""stims/images/lobster.png"",""stims/images/dolphin.png"",""stims/images/sloth.png"",""stims/images/zebra.png"",""stims/images/dog.png""]","","","","","1","","","stims/images/tarsier.png","","","","","","","","","","passive","3","","stims/audio/its_tarsier.wav","[""stims/images/tarsier.png"",""stims/images/dog.png""]"
"coact-grid","39","255808","0.0-39.0","p012","1","0","","","","","","9350.999999999942","","","[""stims/images/narwhal.png"",""stims/images/armadillo.png"",""stims/images/zebra.png"",""stims/images/dog.png"",""stims/images/sloth.png"",""stims/images/dolphin.png"",""stims/images/tarsier.png"",""stims/images/lobster.png""]","","","","","1","","","","","[5,7]","[""stims/images/dolphin.png"",""stims/images/lobster.png""]","[""dolphin"",""lobster""]","[""stims/audio/thats_dolphin.wav"",""stims/audio/thats_lobster.wav""]","right","[""stims/images/lobster.png"",""stims/images/dolphin.png""]","[""stims/audio/thats_lobster.wav"",""stims/audio/thats_dolphin.wav""]","[""lobster"",""dolphin""]","active","4","","",""
"coact-grid-choice","40","257346","0.0-40.0","p012","1","0","","","","","","1536","","","[""stims/images/narwhal.png"",""stims/images/armadillo.png"",""stims/images/zebra.png"",""stims/images/dog.png"",""stims/images/sloth.png"",""stims/images/dolphin.png"",""stims/images/tarsier.png"",""stims/images/lobster.png""]","","","","","1","","","stims/images/dolphin.png","","","[""stims/images/dolphin.png"",""stims/images/lobster.png""]","","","","[""stims/images/lobster.png"",""stims/images/dolphin.png""]","[""stims/audio/thats_lobster.wav"",""stims/audio/thats_dolphin.wav""]","[""lobster"",""dolphin""]","passive","4","1","stims/audio/thats_dolphin.wav","[""stims/images/lobster.png"",""stims/images/dolphin.png""]"
"coact-grid-choice-audio","41","260357","0.0-41.0","p012","1","0","","","","","","3000","","","[""stims/images/narwhal.png"",""stims/images/armadillo.png"",""stims/images/zebra.png"",""stims/images/dog.png"",""stims/images/sloth.png"",""stims/images/dolphin.png"",""stims/images/tarsier.png"",""stims/images/lobster.png""]","","","","","1","","","stims/images/dolphin.png","","","","","","","","","","passive","4","","stims/audio/thats_dolphin.wav","[""stims/images/lobster.png"",""stims/images/dolphin.png""]"
"coact-grid","42","274094","0.0-42.0","p012","1","0","","","","","","12430.999999999942","","","[""stims/images/armadillo.png"",""stims/images/narwhal.png"",""stims/images/dog.png"",""stims/images/tarsier.png"",""stims/images/lobster.png"",""stims/images/sloth.png"",""stims/images/dolphin.png"",""stims/images/zebra.png""]","","","","","1","","","","","[2,4]","[""stims/images/dog.png"",""stims/images/lobster.png""]","[""dog"",""lobster""]","[""stims/audio/thats_dog.wav"",""stims/audio/thats_lobster.wav""]","left","[""stims/images/dog.png"",""stims/images/lobster.png""]","[""stims/audio/thats_dog.wav"",""stims/audio/thats_lobster.wav""]","[""dog"",""lobster""]","active","5","","",""
"coact-grid-choice","43","275473","0.0-43.0","p012","1","0","","","","","","1376.9999999999418","","","[""stims/images/armadillo.png"",""stims/images/narwhal.png"",""stims/images/dog.png"",""stims/images/tarsier.png"",""stims/images/lobster.png"",""stims/images/sloth.png"",""stims/images/dolphin.png"",""stims/images/zebra.png""]","","","","","1","","","stims/images/lobster.png","","","[""stims/images/dog.png"",""stims/images/lobster.png""]","","","","[""stims/images/dog.png"",""stims/images/lobster.png""]","[""stims/audio/thats_dog.wav"",""stims/audio/thats_lobster.wav""]","[""dog"",""lobster""]","passive","5","1","stims/audio/thats_lobster.wav","[""stims/images/dog.png"",""stims/images/lobster.png""]"
"coact-grid-choice-audio","44","278482","0.0-44.0","p012","1","0","","","","","","3000","","","[""stims/images/armadillo.png"",""stims/images/narwhal.png"",""stims/images/dog.png"",""stims/images/tarsier.png"",""stims/images/lobster.png"",""stims/images/sloth.png"",""stims/images/dolphin.png"",""stims/images/zebra.png""]","","","","","1","","","stims/images/lobster.png","","","","","","","","","","passive","5","","stims/audio/thats_lobster.wav","[""stims/images/dog.png"",""stims/images/lobster.png""]"
"html-button-response","45","294790","0.0-45.0","p012","1","0","","","","","","16307","","0","","","","","","","","","","","","","","","","","","","","","","",""
"coact-test-prompt","46","297317","0.0-46.0","p012","1","0","","","","","","2525.999999999942","","","[""stims/images/cat.png"",""stims/images/squirrel.png"",""stims/images/cow.png"",""stims/images/horse.png"",""stims/images/frog.png"",""stims/images/wolf.png"",""stims/images/duck.png"",""stims/images/butterfly.png""]","cow","stims/images/cow.png","familiar","practice_posttest","familiar","","","","","","","","","","","","","","","","",""
"coact-test","47","300570","0.0-47.0","p012","1","0","","","","","","463291.92","","","[""stims/images/cat.png"",""stims/images/squirrel.png"",""stims/images/cow.png"",""stims/images/horse.png"",""stims/images/frog.png"",""stims/images/wolf.png"",""stims/images/duck.png"",""stims/images/butterfly.png""]","cow","","familiar","practice_posttest","familiar","stims/audio/find_cow.wav","2","stims/images/cow.png","1","","","","","","","","","","","","",""
"coact-test-prompt","48","301820","0.0-48.0","p012","1","0","","","","","","1248.0000000000582","","","[""stims/images/butterfly.png"",""stims/images/cow.png"",""stims/images/wolf.png"",""stims/images/duck.png"",""stims/images/frog.png"",""stims/images/horse.png"",""stims/images/cat.png"",""stims/images/squirrel.png""]","wolf","stims/images/wolf.png","familiar","practice_posttest","familiar","","","","","","","","","","","","","","","","",""
"coact-test","49","304664","0.0-49.0","p012","1","0","","","","","","467381.41866666666","","","[""stims/images/butterfly.png"",""stims/images/cow.png"",""stims/images/wolf.png"",""stims/images/duck.png"",""stims/images/frog.png"",""stims/images/horse.png"",""stims/images/cat.png"",""stims/images/squirrel.png""]","wolf","","familiar","practice_posttest","familiar","stims/audio/wheres_wolf.wav","2","stims/images/wolf.png","1","","","","","","","","","","","","",""
"coact-test-prompt","50","305672","0.0-50.0","p012","1","0","","","","","","1006.9999999999418","","","[""stims/images/zebra.png"",""stims/images/dolphin.png"",""stims/images/sloth.png"",""stims/images/tarsier.png"",""stims/images/armadillo.png"",""stims/images/dog.png"",""stims/images/lobster.png"",""stims/images/narwhal.png""]","armadillo","stims/images/armadillo.png","somewhat unfamiliar","posttest","1","","","","","","","","","","","","","","","","",""
"coact-test","51","308760","0.0-51.0","p012","1","0","","","","","","471473.56533333333","","","[""stims/images/zebra.png"",""stims/images/dolphin.png"",""stims/images/sloth.png"",""stims/images/tarsier.png"",""stims/images/armadillo.png"",""stims/images/dog.png"",""stims/images/lobster.png"",""stims/images/narwhal.png""]","armadillo","","somewhat unfamiliar","posttest","1","stims/audio/wheres_armadillo.wav","4","stims/images/armadillo.png","1","","","","","","","","","","","","",""
"coact-test-prompt","52","309010","0.0-52.0","p012","1","0","","","","","","248","","","[""stims/images/narwhal.png"",""stims/images/armadillo.png"",""stims/images/sloth.png"",""stims/images/tarsier.png"",""stims/images/lobster.png"",""stims/images/dolphin.png"",""stims/images/zebra.png"",""stims/images/dog.png""]","narwhal","stims/images/narwhal.png","unfamiliar","posttest","1","","","","","","","","","","","","","","","","",""
"coact-test","53","312694","0.0-53.0","p012","1","0","","","","","","475404.2293333333","","","[""stims/images/narwhal.png"",""stims/images/armadillo.png"",""stims/images/sloth.png"",""stims/images/tarsier.png"",""stims/images/lobster.png"",""stims/images/dolphin.png"",""stims/images/zebra.png"",""stims/images/dog.png""]","narwhal","","unfamiliar","posttest","1","stims/audio/wheres_narwhal.wav","0","stims/images/narwhal.png","1","","","","","","","","","","","","",""
"coact-test-prompt","54","315787","0.0-54.0","p012","1","0","","","","","","3092","","","[""stims/images/narwhal.png"",""stims/images/dolphin.png"",""stims/images/zebra.png"",""stims/images/sloth.png"",""stims/images/tarsier.png"",""stims/images/dog.png"",""stims/images/armadillo.png"",""stims/images/lobster.png""]","tarsier","stims/images/tarsier.png","unfamiliar","posttest","1","","","","","","","","","","","","","","","","",""
"coact-test","55","319958","0.0-55.0","p012","1","0","","","","","","482662.4506666667","","","[""stims/images/narwhal.png"",""stims/images/dolphin.png"",""stims/images/zebra.png"",""stims/images/sloth.png"",""stims/images/tarsier.png"",""stims/images/dog.png"",""stims/images/armadillo.png"",""stims/images/lobster.png""]","tarsier","","unfamiliar","posttest","1","stims/audio/find_tarsier.wav","4","stims/images/tarsier.png","1","","","","","","","","","","","","",""
"coact-test-prompt","56","320781","0.0-56.0","p012","1","0","","","","","","821","","","[""stims/images/dolphin.png"",""stims/images/armadillo.png"",""stims/images/sloth.png"",""stims/images/tarsier.png"",""stims/images/lobster.png"",""stims/images/zebra.png"",""stims/images/narwhal.png"",""stims/images/dog.png""]","sloth","stims/images/sloth.png","somewhat unfamiliar","posttest","1","","","","","","","","","","","","","","","","",""
"coact-test","57","324467","0.0-57.0","p012","1","0","","","","","","487166.45866666664","","","[""stims/images/dolphin.png"",""stims/images/armadillo.png"",""stims/images/sloth.png"",""stims/images/tarsier.png"",""stims/images/lobster.png"",""stims/images/zebra.png"",""stims/images/narwhal.png"",""stims/images/dog.png""]","sloth","","somewhat unfamiliar","posttest","1","stims/audio/find_sloth.wav","2","stims/images/sloth.png","1","","","","","","","","","","","","",""
"coact-test-prompt","58","325834","0.0-58.0","p012","1","0","","","","","","1365","","","[""stims/images/armadillo.png"",""stims/images/lobster.png"",""stims/images/sloth.png"",""stims/images/tarsier.png"",""stims/images/zebra.png"",""stims/images/dog.png"",""stims/images/dolphin.png"",""stims/images/narwhal.png""]","zebra","stims/images/zebra.png","familiar","posttest","1","","","","","","","","","","","","","","","","",""
"coact-test","59","328786","0.0-59.0","p012","1","0","","","","","","491480.40533333336","","","[""stims/images/armadillo.png"",""stims/images/lobster.png"",""stims/images/sloth.png"",""stims/images/tarsier.png"",""stims/images/zebra.png"",""stims/images/dog.png"",""stims/images/dolphin.png"",""stims/images/narwhal.png""]","zebra","","familiar","posttest","1","stims/audio/find_zebra.wav","4","stims/images/zebra.png","1","","","","","","","","","","","","",""
"coact-test-prompt","60","328835","0.0-60.0","p012","1","0","","","","","","48","","","[""stims/images/narwhal.png"",""stims/images/dog.png"",""stims/images/armadillo.png"",""stims/images/dolphin.png"",""stims/images/tarsier.png"",""stims/images/sloth.png"",""stims/images/lobster.png"",""stims/images/zebra.png""]","dog","stims/images/dog.png","familiar","posttest","1","","","","","","","","","","","","","","","","",""
"coact-test","61","332115","0.0-61.0","p012","1","0","","","","","","494807.40533333336","","","[""stims/images/narwhal.png"",""stims/images/dog.png"",""stims/images/armadillo.png"",""stims/images/dolphin.png"",""stims/images/tarsier.png"",""stims/images/sloth.png"",""stims/images/lobster.png"",""stims/images/zebra.png""]","dog","","familiar","posttest","1","stims/audio/wheres_dog.wav","1","stims/images/dog.png","1","","","","","","","","","","","","",""
"coact-test-prompt","62","333596","0.0-62.0","p012","1","0","","","","","","1479","","","[""stims/images/sloth.png"",""stims/images/armadillo.png"",""stims/images/lobster.png"",""stims/images/narwhal.png"",""stims/images/tarsier.png"",""stims/images/zebra.png"",""stims/images/dog.png"",""stims/images/dolphin.png""]","lobster","stims/images/lobster.png","somewhat familiar","posttest","1","","","","","","","","","","","","","","","","",""
"coact-test","63","336907","0.0-63.0","p012","1","0","","","","","","499594.64266666665","","","[""stims/images/sloth.png"",""stims/images/armadillo.png"",""stims/images/lobster.png"",""stims/images/narwhal.png"",""stims/images/tarsier.png"",""stims/images/zebra.png"",""stims/images/dog.png"",""stims/images/dolphin.png""]","lobster","","somewhat familiar","posttest","1","stims/audio/wheres_lobster.wav","2","stims/images/lobster.png","1","","","","","","","","","","","","",""
"coact-test-prompt","64","338183","0.0-64.0","p012","1","0","","","","","","1274","","","[""stims/images/lobster.png"",""stims/images/narwhal.png"",""stims/images/armadillo.png"",""stims/images/sloth.png"",""stims/images/dog.png"",""stims/images/zebra.png"",""stims/images/tarsier.png"",""stims/images/dolphin.png""]","dolphin","stims/images/dolphin.png","somewhat familiar","posttest","1","","","","","","","","","","","","","","","","",""
"coact-test","65","341810","0.0-65.0","p012","1","0","","","","","","504493.056","","","[""stims/images/lobster.png"",""stims/images/narwhal.png"",""stims/images/armadillo.png"",""stims/images/sloth.png"",""stims/images/dog.png"",""stims/images/zebra.png"",""stims/images/tarsier.png"",""stims/images/dolphin.png""]","dolphin","","somewhat familiar","posttest","1","stims/audio/find_dolphin.wav","7","stims/images/dolphin.png","1","","","","","","","","","","","","",""
