"trial_type","trial_index","time_elapsed","internal_node_id","subject_id","round_name","round_index","success","timeout","failed_images","failed_audio","failed_video","rt","stimulus","response","images","target","target_image","target_type","round_type","set","test_audio","choice","chosen_image","correct","choices","chosen_images","chosen_items","chosen_audio_items","first_choice_location","chosen_images_in_order","chosen_audio_in_order","chosen_items_in_order","condition","sample_num","chosen_index","chosen_audio","central_images"
"pavlovia","0","3","0.0-0.0","p032","4","3","","","","","","","","","","","","","","","","","","","","","","","","","","","","","","",""
"preload","1","327","0.0-1.0","p032","4","3","true","false","[]","[]","[]","","","","","","","","","","","","","","","","","","","","","","","","","",""
"html-button-response","2","1485","0.0-2.0","p032","4","3","","","","","","1157","","0","","","","","","","","","","","","","","","","","","","","","","",""
"coact-test-prompt","3","3203","0.0-3.0","p032","4","3","","","","","","1716.999999999999","","","[""stims/images/cow.png"",""stims/images/squirrel.png"",""stims/images/cat.png"",""stims/images/wolf.png"",""stims/images/frog.png"",""stims/images/horse.png"",""stims/images/duck.png"",""stims/images/butterfly.png""]","cow","stims/images/cow.png","familiar","practice_pretest","familiar","","","","","","","","","","","","","","","","",""
"coact-test","4","6565","0.0-4.0","p032","4","3","","","","","","11580.04","","","[""stims/images/cow.png"",""stims/images/squirrel.png"",""stims/images/cat.png"",""stims/images/wolf.png"",""stims/images/frog.png"",""stims/images/horse.png"",""stims/images/duck.png"",""stims/images/butterfly.png""]","cow","","familiar","practice_pretest","familiar","stims/audio/wheres_cow.wav","0","stims/images/cow.png","1","","","","","","","","","","","","",""
"coact-test-prompt","5","7749","0.0-5.0","p032","4","3","","","","","","1183","","","[""stims/images/horse.png"",""stims/images/duck.png"",""stims/images/wolf.png"",""stims/images/cat.png"",""stims/images/frog.png"",""stims/images/cow.png"",""stims/images/squirrel.png"",""stims/images/butterfly.png""]","cat","stims/images/cat.png","familiar","practice_pretest","familiar","","","","","","","","","","","","","","","","",""
"coact-test","6","11797","0.0-6.0","p032","4","3","","","","","","16805.493333333332","","","[""stims/images/horse.png"",""stims/images/duck.png"",""stims/images/wolf.png"",""stims/images/cat.png"",""stims/images/frog.png"",""stims/images/cow.png"",""stims/images/squirrel.png"",""stims/images/butterfly.png""]","cat","","familiar","practice_pretest","familiar","stims/audio/wheres_cat.wav","3","stims/images/cat.png","1","","","","","","","","","","","","",""
"coact-test-prompt","7","13450","0.0-7.0","p032","4","3","","","","","","1652","","","[""stims/images/flamingo.png"",""stims/images/alpaca.png"",""stims/images/elephant.png"",""stims/images/sloth.png"",""stims/images/cormorant.png"",""stims/images/rabbit.png"",""stims/images/koala.png"",""stims/images/wombat.png""]","koala","stims/images/koala.png","somewhat familiar","pretest","4","","","","","","","","","","","","","","","","",""
"coact-test","8","17870","0.0-8.0","p032","4","3","","","","","","22876.792","","","[""stims/images/flamingo.png"",""stims/images/alpaca.png"",""stims/images/elephant.png"",""stims/images/sloth.png"",""stims/images/cormorant.png"",""stims/images/rabbit.png"",""stims/images/koala.png"",""stims/images/wombat.png""]","koala","","somewhat familiar","pretest","4","stims/audio/wheres_koala.wav","6","stims/images/koala.png","1","","","","","","","","","","","","",""
"coact-test-prompt","9","19270","0.0-9.0","p032","4","3","","","","","","1399","","","[""stims/images/elephant.png"",""stims/images/wombat.png"",""stims/images/alpaca.png"",""stims/images/rabbit.png"",""stims/images/cormorant.png"",""stims/images/koala.png"",""stims/images/sloth.png"",""stims/images/flamingo.png""]","wombat","stims/images/wombat.png","unfamiliar","pretest","4","","","","","","","","","","","","","","","","",""
"coact-test","10","23922","0.0-10.0","p032","4","3","","","","","","28923.970666666668","","","[""stims/images/elephant.png"",""stims/images/wombat.png"",""stims/images/alpaca.png"",""stims/images/rabbit.png"",""stims/images/cormorant.png"",""stims/images/koala.png"",""stims/images/sloth.png"",""stims/images/flamingo.png""]","wombat","","unfamiliar","pretest","4","stims/audio/wheres_wombat.wav","4","stims/images/cormorant.png","0","","","","","","","","","","","","",""
"coact-test-prompt","11","25117","0.0-11.0","p032","4","3","","","","","","1194","","","[""stims/images/alpaca.png"",""stims/images/sloth.png"",""stims/images/elephant.png"",""stims/images/rabbit.png"",""stims/images/flamingo.png"",""stims/images/cormorant.png"",""stims/images/wombat.png"",""stims/images/koala.png""]","cormorant","stims/images/cormorant.png","unfamiliar","pretest","4","","","","","","","","","","","","","","","","",""
"coact-test","12","29501","0.0-12.0","p032","4","3","","","","","","34496.12533333333","","","[""stims/images/alpaca.png"",""stims/images/sloth.png"",""stims/images/elephant.png"",""stims/images/rabbit.png"",""stims/images/flamingo.png"",""stims/images/cormorant.png"",""stims/images/wombat.png"",""stims/images/koala.png""]","cormorant","","unfamiliar","pretest","4","stims/audio/find_cormorant.wav","3","stims/images/rabbit.png","0","","","","","","","","","","","","",""
"coact-test-prompt","13","30392","0.0-13.0","p032","4","3","","","","","","890","","","[""stims/images/cormorant.png"",""stims/images/koala.png"",""stims/images/sloth.png"",""stims/images/alpaca.png"",""stims/images/flamingo.png"",""stims/images/elephant.png"",""stims/images/rabbit.png"",""stims/images/wombat.png""]","alpaca","stims/images/alpaca.png","somewhat unfamiliar","pretest","4","","","","","","","","","","","","","","","","",""
"coact-test","14","35268","0.0-14.0","p032","4","3","","","","","","40258.850666666665","","","[""stims/images/cormorant.png"",""stims/images/koala.png"",""stims/images/sloth.png"",""stims/images/alpaca.png"",""stims/images/flamingo.png"",""stims/images/elephant.png"",""stims/images/rabbit.png"",""stims/images/wombat.png""]","alpaca","","somewhat unfamiliar","pretest","4","stims/audio/wheres_alpaca.wav","3","stims/images/alpaca.png","1","","","","","","","","","","","","",""
"coact-test-prompt","15","36263","0.0-15.0","p032","4","3","","","","","","994","","","[""stims/images/flamingo.png"",""stims/images/rabbit.png"",""stims/images/cormorant.png"",""stims/images/elephant.png"",""stims/images/sloth.png"",""stims/images/alpaca.png"",""stims/images/koala.png"",""stims/images/wombat.png""]","flamingo","stims/images/flamingo.png","somewhat familiar","pretest","4","","","","","","","","","","","","","","","","",""
"coact-test","16","39965","0.0-16.0","p032","4","3","","","","","","44949.97866666668","","","[""stims/images/flamingo.png"",""stims/images/rabbit.png"",""stims/images/cormorant.png"",""stims/images/elephant.png"",""stims/images/sloth.png"",""stims/images/alpaca.png"",""stims/images/koala.png"",""stims/images/wombat.png""]","flamingo","","somewhat familiar","pretest","4","stims/audio/find_flamingo.wav","0","stims/images/flamingo.png","1","","","","","","","","","","","","",""
"coact-test-prompt","17","41092","0.0-17.0","p032","4","3","","","","","","1125.9999999999927","","","[""stims/images/elephant.png"",""stims/images/wombat.png"",""stims/images/cormorant.png"",""stims/images/alpaca.png"",""stims/images/flamingo.png"",""stims/images/sloth.png"",""stims/images/koala.png"",""stims/images/rabbit.png""]","elephant","stims/images/elephant.png","familiar","pretest","4","","","","","","","","","","","","","","","","",""
"coact-test","18","44260","0.0-18.0","p032","4","3","","","","","","49240.149333333335","","","[""stims/images/elephant.png"",""stims/images/wombat.png"",""stims/images/cormorant.png"",""stims/images/alpaca.png"",""stims/images/flamingo.png"",""stims/images/sloth.png"",""stims/images/koala.png"",""stims/images/rabbit.png""]","elephant","","familiar","pretest","4","stims/audio/wheres_elephant.wav","0","stims/images/elephant.png","1","","","","","","","","","","","","",""
"coact-test-prompt","19","45336","0.0-19.0","p032","4","3","","","","","","1075","","","[""stims/images/koala.png"",""stims/images/cormorant.png"",""stims/images/wombat.png"",""stims/images/alpaca.png"",""stims/images/sloth.png"",""stims/images/flamingo.png"",""stims/images/elephant.png"",""stims/images/rabbit.png""]","rabbit","stims/images/rabbit.png","familiar","pretest","4","","","","","","","","","","","","","","","","",""
"coact-test","20","48524","0.0-20.0","p032","4","3","","","","","","53500.90666666667","","","[""stims/images/koala.png"",""stims/images/cormorant.png"",""stims/images/wombat.png"",""stims/images/alpaca.png"",""stims/images/sloth.png"",""stims/images/flamingo.png"",""stims/images/elephant.png"",""stims/images/rabbit.png""]","rabbit","","familiar","pretest","4","stims/audio/find_rabbit.wav","7","stims/images/rabbit.png","1","","","","","","","","","","","","",""
"coact-test-prompt","21","48839","0.0-21.0","p032","4","3","","","","","","313","","","[""stims/images/flamingo.png"",""stims/images/elephant.png"",""stims/images/sloth.png"",""stims/images/alpaca.png"",""stims/images/wombat.png"",""stims/images/koala.png"",""stims/images/rabbit.png"",""stims/images/cormorant.png""]","sloth","stims/images/sloth.png","somewhat unfamiliar","pretest","4","","","","","","","","","","","","","","","","",""
"coact-test","22","53309","0.0-22.0","p032","4","3","","","","","","58282.405333333336","","","[""stims/images/flamingo.png"",""stims/images/elephant.png"",""stims/images/sloth.png"",""stims/images/alpaca.png"",""stims/images/wombat.png"",""stims/images/koala.png"",""stims/images/rabbit.png"",""stims/images/cormorant.png""]","sloth","","somewhat unfamiliar","pretest","4","stims/audio/find_sloth.wav","2","stims/images/sloth.png","1","","","","","","","","","","","","",""
"html-button-response","23","59310","0.0-23.0","p032","4","3","","","","","","5999","","0","","","","","","","","","","","","","","","","","","","","","","",""
"coact-grid","24","65047","0.0-24.0","p032","4","3","","","","","","4426","","","[""stims/images/frog.png"",""stims/images/cat.png"",""stims/images/duck.png"",""stims/images/butterfly.png"",""stims/images/squirrel.png"",""stims/images/horse.png"",""stims/images/wolf.png"",""stims/images/cow.png""]","","","","","familiar","","","","","[0,3]","[""stims/images/frog.png"",""stims/images/butterfly.png""]","[""frog"",""butterfly""]","[""stims/audio/its_frog.wav"",""stims/audio/its_butterfly.wav""]","left","[""stims/images/frog.png"",""stims/images/butterfly.png""]","[""stims/audio/its_frog.wav"",""stims/audio/its_butterfly.wav""]","[""frog"",""butterfly""]","active","0","","",""
"coact-grid-choice","25","69236","0.0-25.0","p032","4","3","","","","","","4185","","","[""stims/images/frog.png"",""stims/images/cat.png"",""stims/images/duck.png"",""stims/images/butterfly.png"",""stims/images/squirrel.png"",""stims/images/horse.png"",""stims/images/wolf.png"",""stims/images/cow.png""]","","","","","familiar","","","stims/images/frog.png","","","[""stims/images/frog.png"",""stims/images/butterfly.png""]","","","","[""stims/images/frog.png"",""stims/images/butterfly.png""]","[""stims/audio/its_frog.wav"",""stims/audio/its_butterfly.wav""]","[""frog"",""butterfly""]","active","0","0","stims/audio/its_frog.wav","[""stims/images/frog.png"",""stims/images/butterfly.png""]"
"coact-grid-choice-audio","26","72249","0.0-26.0","p032","4","3","","","","","","3000","","","[""stims/images/frog.png"",""stims/images/cat.png"",""stims/images/duck.png"",""stims/images/butterfly.png"",""stims/images/squirrel.png"",""stims/images/horse.png"",""stims/images/wolf.png"",""stims/images/cow.png""]","","","","","familiar","","","stims/images/frog.png","","","","","","","","","","active","0","","stims/audio/its_frog.wav","[""stims/images/frog.png"",""stims/images/butterfly.png""]"
"coact-grid","27","76242","0.0-27.0","p032","4","3","","","","","","2686","","","[""stims/images/sloth.png"",""stims/images/flamingo.png"",""stims/images/koala.png"",""stims/images/cormorant.png"",""stims/images/rabbit.png"",""stims/images/elephant.png"",""stims/images/wombat.png"",""stims/images/alpaca.png""]","","","","","4","","","","","[5,7]","[""stims/images/elephant.png"",""stims/images/alpaca.png""]","[""elephant"",""alpaca""]","[""stims/audio/its_elephant.wav"",""stims/audio/its_alpaca.wav""]","left","[""stims/images/elephant.png"",""stims/images/alpaca.png""]","[""stims/audio/its_elephant.wav"",""stims/audio/its_alpaca.wav""]","[""elephant"",""alpaca""]","active","0","","",""
"coact-grid-choice","28","78657","0.0-28.0","p032","4","3","","","","","","2414","","","[""stims/images/sloth.png"",""stims/images/flamingo.png"",""stims/images/koala.png"",""stims/images/cormorant.png"",""stims/images/rabbit.png"",""stims/images/elephant.png"",""stims/images/wombat.png"",""stims/images/alpaca.png""]","","","","","4","","","stims/images/alpaca.png","","","[""stims/images/elephant.png"",""stims/images/alpaca.png""]","","","","[""stims/images/elephant.png"",""stims/images/alpaca.png""]","[""stims/audio/its_elephant.wav"",""stims/audio/its_alpaca.wav""]","[""elephant"",""alpaca""]","active","0","1","stims/audio/its_alpaca.wav","[""stims/images/elephant.png"",""stims/images/alpaca.png""]"
"coact-grid-choice-audio","29","81666","0.0-29.0","p032","4","3","","","","","","3000","","","[""stims/images/sloth.png"",""stims/images/flamingo.png"",""stims/images/koala.png"",""stims/images/cormorant.png"",""stims/images/rabbit.png"",""stims/images/elephant.png"",""stims/images/wombat.png"",""stims/images/alpaca.png""]","","","","","4","","","stims/images/alpaca.png","","","","","","","","","","active","0","","stims/audio/its_alpaca.wav","[""stims/images/elephant.png"",""stims/images/alpaca.png""]"
"coact-grid","30","86424","0.0-30.0","p032","4","3","","","","","","3450","","","[""stims/images/koala.png"",""stims/images/sloth.png"",""stims/images/wombat.png"",""stims/images/cormorant.png"",""stims/images/elephant.png"",""stims/images/rabbit.png"",""stims/images/alpaca.png"",""stims/images/flamingo.png""]","","","","","4","","","","","[2,0]","[""stims/images/wombat.png"",""stims/images/koala.png""]","[""wombat"",""koala""]","[""stims/audio/thats_wombat.wav"",""stims/audio/thats_koala.wav""]","right","[""stims/images/koala.png"",""stims/images/wombat.png""]","[""stims/audio/thats_koala.wav"",""stims/audio/thats_wombat.wav""]","[""koala"",""wombat""]","active","1","","",""
"coact-grid-choice","31","88013","0.0-31.0","p032","4","3","","","","","","1586","","","[""stims/images/koala.png"",""stims/images/sloth.png"",""stims/images/wombat.png"",""stims/images/cormorant.png"",""stims/images/elephant.png"",""stims/images/rabbit.png"",""stims/images/alpaca.png"",""stims/images/flamingo.png""]","","","","","4","","","stims/images/koala.png","","","[""stims/images/wombat.png"",""stims/images/koala.png""]","","","","[""stims/images/koala.png"",""stims/images/wombat.png""]","[""stims/audio/thats_koala.wav"",""stims/audio/thats_wombat.wav""]","[""koala"",""wombat""]","active","1","0","stims/audio/thats_koala.wav","[""stims/images/koala.png"",""stims/images/wombat.png""]"
"coact-grid-choice-audio","32","91024","0.0-32.0","p032","4","3","","","","","","3003","","","[""stims/images/koala.png"",""stims/images/sloth.png"",""stims/images/wombat.png"",""stims/images/cormorant.png"",""stims/images/elephant.png"",""stims/images/rabbit.png"",""stims/images/alpaca.png"",""stims/images/flamingo.png""]","","","","","4","","","stims/images/koala.png","","","","","","","","","","active","1","","stims/audio/thats_koala.wav","[""stims/images/koala.png"",""stims/images/wombat.png""]"
"coact-grid","33","98439","0.0-33.0","p032","4","3","","","","","","6107","","","[""stims/images/wombat.png"",""stims/images/sloth.png"",""stims/images/flamingo.png"",""stims/images/elephant.png"",""stims/images/alpaca.png"",""stims/images/koala.png"",""stims/images/rabbit.png"",""stims/images/cormorant.png""]","","","","","4","","","","","[5,1]","[""stims/images/koala.png"",""stims/images/sloth.png""]","[""koala"",""sloth""]","[""stims/audio/its_koala.wav"",""stims/audio/its_sloth.wav""]","left","[""stims/images/koala.png"",""stims/images/sloth.png""]","[""stims/audio/its_koala.wav"",""stims/audio/its_sloth.wav""]","[""koala"",""sloth""]","active","2","","",""
"coact-grid-choice","34","99986","0.0-34.0","p032","4","3","","","","","","1545.9999999999854","","","[""stims/images/wombat.png"",""stims/images/sloth.png"",""stims/images/flamingo.png"",""stims/images/elephant.png"",""stims/images/alpaca.png"",""stims/images/koala.png"",""stims/images/rabbit.png"",""stims/images/cormorant.png""]","","","","","4","","","stims/images/sloth.png","","","[""stims/images/koala.png"",""stims/images/sloth.png""]","","","","[""stims/images/koala.png"",""stims/images/sloth.png""]","[""stims/audio/its_koala.wav"",""stims/audio/its_sloth.wav""]","[""koala"",""sloth""]","active","2","1","stims/audio/its_sloth.wav","[""stims/images/koala.png"",""stims/images/sloth.png""]"
"coact-grid-choice-audio","35","102996","0.0-35.0","p032","4","3","","","","","","3003","","","[""stims/images/wombat.png"",""stims/images/sloth.png"",""stims/images/flamingo.png"",""stims/images/elephant.png"",""stims/images/alpaca.png"",""stims/images/koala.png"",""stims/images/rabbit.png"",""stims/images/cormorant.png""]","","","","","4","","","stims/images/sloth.png","","","","","","","","","","active","2","","stims/audio/its_sloth.wav","[""stims/images/koala.png"",""stims/images/sloth.png""]"
"coact-grid","36","108169","0.0-36.0","p032","4","3","","","","","","3867","","","[""stims/images/koala.png"",""stims/images/wombat.png"",""stims/images/elephant.png"",""stims/images/rabbit.png"",""stims/images/cormorant.png"",""stims/images/sloth.png"",""stims/images/alpaca.png"",""stims/images/flamingo.png""]","","","","","4","","","","","[4,7]","[""stims/images/cormorant.png"",""stims/images/flamingo.png""]","[""cormorant"",""flamingo""]","[""stims/audio/its_cormorant.wav"",""stims/audio/its_flamingo.wav""]","right","[""stims/images/flamingo.png"",""stims/images/cormorant.png""]","[""stims/audio/its_flamingo.wav"",""stims/audio/its_cormorant.wav""]","[""flamingo"",""cormorant""]","active","3","","",""
"coact-grid-choice","37","109659","0.0-37.0","p032","4","3","","","","","","1486.9999999999854","","","[""stims/images/koala.png"",""stims/images/wombat.png"",""stims/images/elephant.png"",""stims/images/rabbit.png"",""stims/images/cormorant.png"",""stims/images/sloth.png"",""stims/images/alpaca.png"",""stims/images/flamingo.png""]","","","","","4","","","stims/images/flamingo.png","","","[""stims/images/cormorant.png"",""stims/images/flamingo.png""]","","","","[""stims/images/flamingo.png"",""stims/images/cormorant.png""]","[""stims/audio/its_flamingo.wav"",""stims/audio/its_cormorant.wav""]","[""flamingo"",""cormorant""]","active","3","0","stims/audio/its_flamingo.wav","[""stims/images/flamingo.png"",""stims/images/cormorant.png""]"
"coact-grid-choice-audio","38","112669","0.0-38.0","p032","4","3","","","","","","3000","","","[""stims/images/koala.png"",""stims/images/wombat.png"",""stims/images/elephant.png"",""stims/images/rabbit.png"",""stims/images/cormorant.png"",""stims/images/sloth.png"",""stims/images/alpaca.png"",""stims/images/flamingo.png""]","","","","","4","","","stims/images/flamingo.png","","","","","","","","","","active","3","","stims/audio/its_flamingo.wav","[""stims/images/flamingo.png"",""stims/images/cormorant.png""]"
"coact-grid","39","118517","0.0-39.0","p032","4","3","","","","","","4541","","","[""stims/images/wombat.png"",""stims/images/cormorant.png"",""stims/images/koala.png"",""stims/images/elephant.png"",""stims/images/sloth.png"",""stims/images/alpaca.png"",""stims/images/flamingo.png"",""stims/images/rabbit.png""]","","","","","4","","","","","[7,3]","[""stims/images/rabbit.png"",""stims/images/elephant.png""]","[""rabbit"",""elephant""]","[""stims/audio/thats_rabbit.wav"",""stims/audio/thats_elephant.wav""]","right","[""stims/images/elephant.png"",""stims/images/rabbit.png""]","[""stims/audio/thats_elephant.wav"",""stims/audio/thats_rabbit.wav""]","[""elephant"",""rabbit""]","active","4","","",""
"coact-grid-choice","40","119764","0.0-40.0","p032","4","3","","","","","","1246","","","[""stims/images/wombat.png"",""stims/images/cormorant.png"",""stims/images/koala.png"",""stims/images/elephant.png"",""stims/images/sloth.png"",""stims/images/alpaca.png"",""stims/images/flamingo.png"",""stims/images/rabbit.png""]","","","","","4","","","stims/images/rabbit.png","","","[""stims/images/rabbit.png"",""stims/images/elephant.png""]","","","","[""stims/images/elephant.png"",""stims/images/rabbit.png""]","[""stims/audio/thats_elephant.wav"",""stims/audio/thats_rabbit.wav""]","[""elephant"",""rabbit""]","active","4","1","stims/audio/thats_rabbit.wav","[""stims/images/elephant.png"",""stims/images/rabbit.png""]"
"coact-grid-choice-audio","41","122773","0.0-41.0","p032","4","3","","","","","","3003","","","[""stims/images/wombat.png"",""stims/images/cormorant.png"",""stims/images/koala.png"",""stims/images/elephant.png"",""stims/images/sloth.png"",""stims/images/alpaca.png"",""stims/images/flamingo.png"",""stims/images/rabbit.png""]","","","","","4","","","stims/images/rabbit.png","","","","","","","","","","active","4","","stims/audio/thats_rabbit.wav","[""stims/images/elephant.png"",""stims/images/rabbit.png""]"
"coact-grid","42","127663","0.0-42.0","p032","4","3","","","","","","3584.0000000000146","","","[""stims/images/flamingo.png"",""stims/images/wombat.png"",""stims/images/koala.png"",""stims/images/alpaca.png"",""stims/images/rabbit.png"",""stims/images/elephant.png"",""stims/images/sloth.png"",""stims/images/cormorant.png""]","","","","","4","","","","","[1,7]","[""stims/images/wombat.png"",""stims/images/cormorant.png""]","[""wombat"",""cormorant""]","[""stims/audio/thats_wombat.wav"",""stims/audio/thats_cormorant.wav""]","left","[""stims/images/wombat.png"",""stims/images/cormorant.png""]","[""stims/audio/thats_wombat.wav"",""stims/audio/thats_cormorant.wav""]","[""wombat"",""cormorant""]","active","5","","",""
"coact-grid-choice","43","128637","0.0-43.0","p032","4","3","","","","","","971.0000000000291","","","[""stims/images/flamingo.png"",""stims/images/wombat.png"",""stims/images/koala.png"",""stims/images/alpaca.png"",""stims/images/rabbit.png"",""stims/images/elephant.png"",""stims/images/sloth.png"",""stims/images/cormorant.png""]","","","","","4","","","stims/images/cormorant.png","","","[""stims/images/wombat.png"",""stims/images/cormorant.png""]","","","","[""stims/images/wombat.png"",""stims/images/cormorant.png""]","[""stims/audio/thats_wombat.wav"",""stims/audio/thats_cormorant.wav""]","[""wombat"",""cormorant""]","active","5","1","stims/audio/thats_cormorant.wav","[""stims/images/wombat.png"",""stims/images/cormorant.png""]"
"coact-grid-choice-audio","44","131646","0.0-44.0","p032","4","3","","","","","","3003","","","[""stims/images/flamingo.png"",""stims/images/wombat.png"",""stims/images/koala.png"",""stims/images/alpaca.png"",""stims/images/rabbit.png"",""stims/images/elephant.png"",""stims/images/sloth.png"",""stims/images/cormorant.png""]","","","","","4","","","stims/images/cormorant.png","","","","","","","","","","active","5","","stims/audio/thats_cormorant.wav","[""stims/images/wombat.png"",""stims/images/cormorant.png""]"
"html-button-response","45","143292","0.0-45.0","p032","4","3","","","","","","11643.99999999997","","0","","","","","","","","","","","","","","","","","","","","","","",""
"coact-test-prompt","46","145400","0.0-46.0","p032","4","3","","","","","","2107","","","[""stims/images/duck.png"",""stims/images/frog.png"",""stims/images/horse.png"",""stims/images/cat.png"",""stims/images/wolf.png"",""stims/images/squirrel.png"",""stims/images/butterfly.png"",""stims/images/cow.png""]","cow","stims/images/cow.png","familiar","practice_posttest","familiar","","","","","","","","","","","","","","","","",""
"coact-test","47","148653","0.0-47.0","p032","4","3","","","","","","153534.84266666666","","","[""stims/images/duck.png"",""stims/images/frog.png"",""stims/images/horse.png"",""stims/images/cat.png"",""stims/images/wolf.png"",""stims/images/squirrel.png"",""stims/images/butterfly.png"",""stims/images/cow.png""]","cow","","familiar","practice_posttest","familiar","stims/audio/find_cow.wav","7","stims/images/cow.png","1","","","","","","","","","","","","",""
"coact-test-prompt","48","151347","0.0-48.0","p032","4","3","","","","","","2693","","","[""stims/images/frog.png"",""stims/images/squirrel.png"",""stims/images/butterfly.png"",""stims/images/duck.png"",""stims/images/wolf.png"",""stims/images/cow.png"",""stims/images/cat.png"",""stims/images/horse.png""]","cat","stims/images/cat.png","familiar","practice_posttest","familiar","","","","","","","","","","","","","","","","",""
"coact-test","49","154599","0.0-49.0","p032","4","3","","","","","","159475.896","","","[""stims/images/frog.png"",""stims/images/squirrel.png"",""stims/images/butterfly.png"",""stims/images/duck.png"",""stims/images/wolf.png"",""stims/images/cow.png"",""stims/images/cat.png"",""stims/images/horse.png""]","cat","","familiar","practice_posttest","familiar","stims/audio/wheres_cat.wav","6","stims/images/cat.png","1","","","","","","","","","","","","",""
"coact-test-prompt","50","155984","0.0-50.0","p032","4","3","","","","","","1383","","","[""stims/images/elephant.png"",""stims/images/alpaca.png"",""stims/images/cormorant.png"",""stims/images/koala.png"",""stims/images/wombat.png"",""stims/images/flamingo.png"",""stims/images/sloth.png"",""stims/images/rabbit.png""]","rabbit","stims/images/rabbit.png","familiar","posttest","4","","","","","","","","","","","","","","","","",""
"coact-test","51","158985","0.0-51.0","p032","4","3","","","","","","163856.25866666666","","","[""stims/images/elephant.png"",""stims/images/alpaca.png"",""stims/images/cormorant.png"",""stims/images/koala.png"",""stims/images/wombat.png"",""stims/images/flamingo.png"",""stims/images/sloth.png"",""stims/images/rabbit.png""]","rabbit","","familiar","posttest","4","stims/audio/wheres_rabbit.wav","7","stims/images/rabbit.png","1","","","","","","","","","","","","",""
"coact-test-prompt","52","160352","0.0-52.0","p032","4","3","","","","","","1366.999999999971","","","[""stims/images/rabbit.png"",""stims/images/alpaca.png"",""stims/images/wombat.png"",""stims/images/flamingo.png"",""stims/images/sloth.png"",""stims/images/cormorant.png"",""stims/images/elephant.png"",""stims/images/koala.png""]","cormorant","stims/images/cormorant.png","unfamiliar","posttest","4","","","","","","","","","","","","","","","","",""
"coact-test","53","166081","0.0-53.0","p032","4","3","","","","","","170949.89066666667","","","[""stims/images/rabbit.png"",""stims/images/alpaca.png"",""stims/images/wombat.png"",""stims/images/flamingo.png"",""stims/images/sloth.png"",""stims/images/cormorant.png"",""stims/images/elephant.png"",""stims/images/koala.png""]","cormorant","","unfamiliar","posttest","4","stims/audio/find_cormorant.wav","2","stims/images/wombat.png","0","","","","","","","","","","","","",""
"coact-test-prompt","54","167305","0.0-54.0","p032","4","3","","","","","","1222","","","[""stims/images/koala.png"",""stims/images/rabbit.png"",""stims/images/sloth.png"",""stims/images/wombat.png"",""stims/images/elephant.png"",""stims/images/cormorant.png"",""stims/images/flamingo.png"",""stims/images/alpaca.png""]","elephant","stims/images/elephant.png","familiar","posttest","4","","","","","","","","","","","","","","","","",""
"coact-test","55","170941","0.0-55.0","p032","4","3","","","","","","175802.936","","","[""stims/images/koala.png"",""stims/images/rabbit.png"",""stims/images/sloth.png"",""stims/images/wombat.png"",""stims/images/elephant.png"",""stims/images/cormorant.png"",""stims/images/flamingo.png"",""stims/images/alpaca.png""]","elephant","","familiar","posttest","4","stims/audio/wheres_elephant.wav","4","stims/images/elephant.png","1","","","","","","","","","","","","",""
"coact-test-prompt","56","172125","0.0-56.0","p032","4","3","","","","","","1182","","","[""stims/images/sloth.png"",""stims/images/rabbit.png"",""stims/images/elephant.png"",""stims/images/wombat.png"",""stims/images/flamingo.png"",""stims/images/koala.png"",""stims/images/alpaca.png"",""stims/images/cormorant.png""]","sloth","stims/images/sloth.png","somewhat unfamiliar","posttest","4","","","","","","","","","","","","","","","","",""
"coact-test","57","175580","0.0-57.0","p032","4","3","","","","","","180437.11733333333","","","[""stims/images/sloth.png"",""stims/images/rabbit.png"",""stims/images/elephant.png"",""stims/images/wombat.png"",""stims/images/flamingo.png"",""stims/images/koala.png"",""stims/images/alpaca.png"",""stims/images/cormorant.png""]","sloth","","somewhat unfamiliar","posttest","4","stims/audio/find_sloth.wav","5","stims/images/koala.png","0","","","","","","","","","","","","",""
"coact-test-prompt","58","176801","0.0-58.0","p032","4","3","","","","","","1221","","","[""stims/images/koala.png"",""stims/images/alpaca.png"",""stims/images/wombat.png"",""stims/images/flamingo.png"",""stims/images/rabbit.png"",""stims/images/cormorant.png"",""stims/images/sloth.png"",""stims/images/elephant.png""]","koala","stims/images/koala.png","somewhat familiar","posttest","4","","","","","","","","","","","","","","","","",""
"coact-test","59","179747","0.0-59.0","p032","4","3","","","","","","184599.44","","","[""stims/images/koala.png"",""stims/images/alpaca.png"",""stims/images/wombat.png"",""stims/images/flamingo.png"",""stims/images/rabbit.png"",""stims/images/cormorant.png"",""stims/images/sloth.png"",""stims/images/elephant.png""]","koala","","somewhat familiar","posttest","4","stims/audio/find_koala.wav","0","stims/images/koala.png","1","","","","","","","","","","","","",""
"coact-test-prompt","60","180845","0.0-60.0","p032","4","3","","","","","","1097","","","[""stims/images/cormorant.png"",""stims/images/wombat.png"",""stims/images/sloth.png"",""stims/images/elephant.png"",""stims/images/koala.png"",""stims/images/alpaca.png"",""stims/images/flamingo.png"",""stims/images/rabbit.png""]","wombat","stims/images/wombat.png","unfamiliar","posttest","4","","","","","","","","","","","","","","","","",""
"coact-test","61","190189","0.0-61.0","p032","4","3","","","","","","195039.39733333333","","","[""stims/images/cormorant.png"",""stims/images/wombat.png"",""stims/images/sloth.png"",""stims/images/elephant.png"",""stims/images/koala.png"",""stims/images/alpaca.png"",""stims/images/flamingo.png"",""stims/images/rabbit.png""]","wombat","","unfamiliar","posttest","4","stims/audio/wheres_wombat.wav","1","stims/images/wombat.png","1","","","","","","","","","","","","",""
"coact-test-prompt","62","191459","0.0-62.0","p032","4","3","","","","","","1268","","","[""stims/images/flamingo.png"",""stims/images/wombat.png"",""stims/images/alpaca.png"",""stims/images/rabbit.png"",""stims/images/koala.png"",""stims/images/cormorant.png"",""stims/images/elephant.png"",""stims/images/sloth.png""]","alpaca","stims/images/alpaca.png","somewhat unfamiliar","posttest","4","","","","","","","","","","","","","","","","",""
"coact-test","63","195271","0.0-63.0","p032","4","3","","","","","","200109.78400000004","","","[""stims/images/flamingo.png"",""stims/images/wombat.png"",""stims/images/alpaca.png"",""stims/images/rabbit.png"",""stims/images/koala.png"",""stims/images/cormorant.png"",""stims/images/elephant.png"",""stims/images/sloth.png""]","alpaca","","somewhat unfamiliar","posttest","4","stims/audio/wheres_alpaca.wav","2","stims/images/alpaca.png","1","","","","","","","","","","","","",""
"coact-test-prompt","64","196171","0.0-64.0","p032","4","3","","","","","","899","","","[""stims/images/wombat.png"",""stims/images/elephant.png"",""stims/images/flamingo.png"",""stims/images/rabbit.png"",""stims/images/sloth.png"",""stims/images/cormorant.png"",""stims/images/koala.png"",""stims/images/alpaca.png""]","flamingo","stims/images/flamingo.png","somewhat familiar","posttest","4","","","","","","","","","","","","","","","","",""
"coact-test","65","199892","0.0-65.0","p032","4","3","","","","","","204726.06933333335","","","[""stims/images/wombat.png"",""stims/images/elephant.png"",""stims/images/flamingo.png"",""stims/images/rabbit.png"",""stims/images/sloth.png"",""stims/images/cormorant.png"",""stims/images/koala.png"",""stims/images/alpaca.png""]","flamingo","","somewhat familiar","posttest","4","stims/audio/find_flamingo.wav","2","stims/images/flamingo.png","1","","","","","","","","","","","","",""
