"trial_type","trial_index","time_elapsed","internal_node_id","subject_id","round_name","round_index","success","timeout","failed_images","failed_audio","failed_video","rt","stimulus","response","images","target","target_image","target_type","round_type","set","test_audio","choice","chosen_image","correct","choices","chosen_images","chosen_items","chosen_audio_items","first_choice_location","chosen_images_in_order","chosen_audio_in_order","chosen_items_in_order","condition","sample_num","chosen_index","chosen_audio","central_images"
"pavlovia","0","2","0.0-0.0","p004","2","1","","","","","","","","","","","","","","","","","","","","","","","","","","","","","","",""
"preload","1","77","0.0-1.0","p004","2","1","true","false","[]","[]","[]","","","","","","","","","","","","","","","","","","","","","","","","","",""
"html-button-response","2","3575","0.0-2.0","p004","2","1","","","","","","3496.999999999999","","0","","","","","","","","","","","","","","","","","","","","","","",""
"coact-test-prompt","3","4177","0.0-3.0","p004","2","1","","","","","","600","","","[""stims/images/butterfly.png"",""stims/images/duck.png"",""stims/images/frog.png"",""stims/images/cow.png"",""stims/images/horse.png"",""stims/images/wolf.png"",""stims/images/cat.png"",""stims/images/squirrel.png""]","cow","stims/images/cow.png","familiar","practice_pretest","familiar","","","","","","","","","","","","","","","","",""
"coact-test","4","8538","0.0-4.0","p004","2","1","","","","","","13078.858666666667","","","[""stims/images/butterfly.png"",""stims/images/duck.png"",""stims/images/frog.png"",""stims/images/cow.png"",""stims/images/horse.png"",""stims/images/wolf.png"",""stims/images/cat.png"",""stims/images/squirrel.png""]","cow","","familiar","practice_pretest","familiar","stims/audio/find_cow.wav","3","stims/images/cow.png","1","","","","","","","","","","","","",""
"coact-test-prompt","5","9088","0.0-5.0","p004","2","1","","","","","","548","","","[""stims/images/duck.png"",""stims/images/squirrel.png"",""stims/images/frog.png"",""stims/images/cat.png"",""stims/images/cow.png"",""stims/images/wolf.png"",""stims/images/horse.png"",""stims/images/butterfly.png""]","butterfly","stims/images/butterfly.png","familiar","practice_pretest","familiar","","","","","","","","","","","","","","","","",""
"coact-test","6","12249","0.0-6.0","p004","2","1","","","","","","16784.944","","","[""stims/images/duck.png"",""stims/images/squirrel.png"",""stims/images/frog.png"",""stims/images/cat.png"",""stims/images/cow.png"",""stims/images/wolf.png"",""stims/images/horse.png"",""stims/images/butterfly.png""]","butterfly","","familiar","practice_pretest","familiar","stims/audio/find_butterfly.wav","7","stims/images/butterfly.png","1","","","","","","","","","","","","",""
"coact-test-prompt","7","12672","0.0-7.0","p004","2","1","","","","","","422","","","[""stims/images/dolphin.png"",""stims/images/bear.png"",""stims/images/manatee.png"",""stims/images/raccoon.png"",""stims/images/rabbit.png"",""stims/images/wombat.png"",""stims/images/narwhal.png"",""stims/images/sloth.png""]","dolphin","stims/images/dolphin.png","somewhat familiar","pretest","2","","","","","","","","","","","","","","","","",""
"coact-test","8","15599","0.0-8.0","p004","2","1","","","","","","20132.365333333335","","","[""stims/images/dolphin.png"",""stims/images/bear.png"",""stims/images/manatee.png"",""stims/images/raccoon.png"",""stims/images/rabbit.png"",""stims/images/wombat.png"",""stims/images/narwhal.png"",""stims/images/sloth.png""]","dolphin","","somewhat familiar","pretest","2","stims/audio/wheres_dolphin.wav","0","stims/images/dolphin.png","1","","","","","","","","","","","","",""
"coact-test-prompt","9","16350","0.0-9.0","p004","2","1","","","","","","750","","","[""stims/images/bear.png"",""stims/images/sloth.png"",""stims/images/rabbit.png"",""stims/images/manatee.png"",""stims/images/dolphin.png"",""stims/images/raccoon.png"",""stims/images/wombat.png"",""stims/images/narwhal.png""]","wombat","stims/images/wombat.png","unfamiliar","pretest","2","","","","","","","","","","","","","","","","",""
"coact-test","10","20569","0.0-10.0","p004","2","1","","","","","","25098.68266666667","","","[""stims/images/bear.png"",""stims/images/sloth.png"",""stims/images/rabbit.png"",""stims/images/manatee.png"",""stims/images/dolphin.png"",""stims/images/raccoon.png"",""stims/images/wombat.png"",""stims/images/narwhal.png""]","wombat","","unfamiliar","pretest","2","stims/audio/find_wombat.wav","5","stims/images/raccoon.png","0","","","","","","","","","","","","",""
"coact-test-prompt","11","21703","0.0-11.0","p004","2","1","","","","","","1131.9999999999964","","","[""stims/images/sloth.png"",""stims/images/bear.png"",""stims/images/manatee.png"",""stims/images/dolphin.png"",""stims/images/rabbit.png"",""stims/images/raccoon.png"",""stims/images/wombat.png"",""stims/images/narwhal.png""]","bear","stims/images/bear.png","familiar","pretest","2","","","","","","","","","","","","","","","","",""
"coact-test","12","25247","0.0-12.0","p004","2","1","","","","","","29772.330666666665","","","[""stims/images/sloth.png"",""stims/images/bear.png"",""stims/images/manatee.png"",""stims/images/dolphin.png"",""stims/images/rabbit.png"",""stims/images/raccoon.png"",""stims/images/wombat.png"",""stims/images/narwhal.png""]","bear","","familiar","pretest","2","stims/audio/find_bear.wav","1","stims/images/bear.png","1","","","","","","","","","","","","",""
"coact-test-prompt","13","26222","0.0-13.0","p004","2","1","","","","","","974","","","[""stims/images/raccoon.png"",""stims/images/wombat.png"",""stims/images/dolphin.png"",""stims/images/sloth.png"",""stims/images/narwhal.png"",""stims/images/manatee.png"",""stims/images/rabbit.png"",""stims/images/bear.png""]","manatee","stims/images/manatee.png","somewhat unfamiliar","pretest","2","","","","","","","","","","","","","","","","",""
"coact-test","14","31683","0.0-14.0","p004","2","1","","","","","","36203.81333333334","","","[""stims/images/raccoon.png"",""stims/images/wombat.png"",""stims/images/dolphin.png"",""stims/images/sloth.png"",""stims/images/narwhal.png"",""stims/images/manatee.png"",""stims/images/rabbit.png"",""stims/images/bear.png""]","manatee","","somewhat unfamiliar","pretest","2","stims/audio/find_manatee.wav","3","stims/images/sloth.png","0","","","","","","","","","","","","",""
"coact-test-prompt","15","32375","0.0-15.0","p004","2","1","","","","","","689.9999999999927","","","[""stims/images/wombat.png"",""stims/images/rabbit.png"",""stims/images/manatee.png"",""stims/images/raccoon.png"",""stims/images/dolphin.png"",""stims/images/bear.png"",""stims/images/narwhal.png"",""stims/images/sloth.png""]","rabbit","stims/images/rabbit.png","familiar","pretest","2","","","","","","","","","","","","","","","","",""
"coact-test","16","35502","0.0-16.0","p004","2","1","","","","","","40016.65866666667","","","[""stims/images/wombat.png"",""stims/images/rabbit.png"",""stims/images/manatee.png"",""stims/images/raccoon.png"",""stims/images/dolphin.png"",""stims/images/bear.png"",""stims/images/narwhal.png"",""stims/images/sloth.png""]","rabbit","","familiar","pretest","2","stims/audio/wheres_rabbit.wav","1","stims/images/rabbit.png","1","","","","","","","","","","","","",""
"coact-test-prompt","17","36312","0.0-17.0","p004","2","1","","","","","","808","","","[""stims/images/raccoon.png"",""stims/images/wombat.png"",""stims/images/narwhal.png"",""stims/images/bear.png"",""stims/images/sloth.png"",""stims/images/manatee.png"",""stims/images/rabbit.png"",""stims/images/dolphin.png""]","raccoon","stims/images/raccoon.png","somewhat familiar","pretest","2","","","","","","","","","","","","","","","","",""
"coact-test","18","39096","0.0-18.0","p004","2","1","","","","","","43606.72266666667","","","[""stims/images/raccoon.png"",""stims/images/wombat.png"",""stims/images/narwhal.png"",""stims/images/bear.png"",""stims/images/sloth.png"",""stims/images/manatee.png"",""stims/images/rabbit.png"",""stims/images/dolphin.png""]","raccoon","","somewhat familiar","pretest","2","stims/audio/wheres_raccoon.wav","0","stims/images/raccoon.png","1","","","","","","","","","","","","",""
"coact-test-prompt","19","39747","0.0-19.0","p004","2","1","","","","","","649","","","[""stims/images/rabbit.png"",""stims/images/bear.png"",""stims/images/manatee.png"",""stims/images/raccoon.png"",""stims/images/narwhal.png"",""stims/images/sloth.png"",""stims/images/wombat.png"",""stims/images/dolphin.png""]","sloth","stims/images/sloth.png","somewhat unfamiliar","pretest","2","","","","","","","","","","","","","","","","",""
"coact-test","20","45130","0.0-20.0","p004","2","1","","","","","","49637.288","","","[""stims/images/rabbit.png"",""stims/images/bear.png"",""stims/images/manatee.png"",""stims/images/raccoon.png"",""stims/images/narwhal.png"",""stims/images/sloth.png"",""stims/images/wombat.png"",""stims/images/dolphin.png""]","sloth","","somewhat unfamiliar","pretest","2","stims/audio/wheres_sloth.wav","5","stims/images/sloth.png","1","","","","","","","","","","","","",""
"coact-test-prompt","21","46115","0.0-21.0","p004","2","1","","","","","","984","","","[""stims/images/manatee.png"",""stims/images/wombat.png"",""stims/images/bear.png"",""stims/images/narwhal.png"",""stims/images/dolphin.png"",""stims/images/rabbit.png"",""stims/images/sloth.png"",""stims/images/raccoon.png""]","narwhal","stims/images/narwhal.png","unfamiliar","pretest","2","","","","","","","","","","","","","","","","",""
"coact-test","22","49085","0.0-22.0","p004","2","1","","","","","","53586.92","","","[""stims/images/manatee.png"",""stims/images/wombat.png"",""stims/images/bear.png"",""stims/images/narwhal.png"",""stims/images/dolphin.png"",""stims/images/rabbit.png"",""stims/images/sloth.png"",""stims/images/raccoon.png""]","narwhal","","unfamiliar","pretest","2","stims/audio/find_narwhal.wav","0","stims/images/manatee.png","0","","","","","","","","","","","","",""
"html-button-response","23","70237","0.0-23.0","p004","2","1","","","","","","21151","","0","","","","","","","","","","","","","","","","","","","","","","",""
"coact-grid","24","75049","0.0-24.0","p004","2","1","","","","","","3502","","","[""stims/images/squirrel.png"",""stims/images/frog.png"",""stims/images/cow.png"",""stims/images/wolf.png"",""stims/images/duck.png"",""stims/images/horse.png"",""stims/images/butterfly.png"",""stims/images/cat.png""]","","","","","familiar","","","","","[2,6]","[""stims/images/cow.png"",""stims/images/butterfly.png""]","[""cow"",""butterfly""]","[""stims/audio/thats_cow.wav"",""stims/audio/thats_butterfly.wav""]","right","[""stims/images/butterfly.png"",""stims/images/cow.png""]","[""stims/audio/thats_butterfly.wav"",""stims/audio/thats_cow.wav""]","[""butterfly"",""cow""]","passive","0","","",""
"coact-grid-choice","25","76619","0.0-25.0","p004","2","1","","","","","","1569","","","[""stims/images/squirrel.png"",""stims/images/frog.png"",""stims/images/cow.png"",""stims/images/wolf.png"",""stims/images/duck.png"",""stims/images/horse.png"",""stims/images/butterfly.png"",""stims/images/cat.png""]","","","","","familiar","","","stims/images/cow.png","","","","","","right","[""stims/images/butterfly.png"",""stims/images/cow.png""]","[""stims/audio/thats_butterfly.wav"",""stims/audio/thats_cow.wav""]","[""butterfly"",""cow""]","active","0","0","stims/audio/thats_butterfly.wav","[""stims/images/cow.png"",""stims/images/butterfly.png""]"
"coact-grid-choice-audio","26","79630","0.0-26.0","p004","2","1","","","","","","3003","","","[""stims/images/squirrel.png"",""stims/images/frog.png"",""stims/images/cow.png"",""stims/images/wolf.png"",""stims/images/duck.png"",""stims/images/horse.png"",""stims/images/butterfly.png"",""stims/images/cat.png""]","","","","","familiar","","","stims/images/cow.png","","","","","","right","","","","active","0","","stims/audio/thats_butterfly.wav","[""stims/images/cow.png"",""stims/images/butterfly.png""]"
"coact-grid","27","83731","0.0-27.0","p004","2","1","","","","","","2789.0000000000146","","","[""stims/images/sloth.png"",""stims/images/wombat.png"",""stims/images/raccoon.png"",""stims/images/manatee.png"",""stims/images/narwhal.png"",""stims/images/bear.png"",""stims/images/rabbit.png"",""stims/images/dolphin.png""]","","","","","2","","","","","[5,1]","[""stims/images/bear.png"",""stims/images/wombat.png""]","[""bear"",""wombat""]","[""stims/audio/its_bear.wav"",""stims/audio/its_wombat.wav""]","right","[""stims/images/wombat.png"",""stims/images/bear.png""]","[""stims/audio/its_wombat.wav"",""stims/audio/its_bear.wav""]","[""wombat"",""bear""]","passive","0","","",""
"coact-grid-choice","28","85491","0.0-28.0","p004","2","1","","","","","","1759","","","[""stims/images/sloth.png"",""stims/images/wombat.png"",""stims/images/raccoon.png"",""stims/images/manatee.png"",""stims/images/narwhal.png"",""stims/images/bear.png"",""stims/images/rabbit.png"",""stims/images/dolphin.png""]","","","","","2","","","stims/images/bear.png","","","","","","right","[""stims/images/wombat.png"",""stims/images/bear.png""]","[""stims/audio/its_wombat.wav"",""stims/audio/its_bear.wav""]","[""wombat"",""bear""]","active","0","0","stims/audio/its_wombat.wav","[""stims/images/bear.png"",""stims/images/wombat.png""]"
"coact-grid-choice-audio","29","88499","0.0-29.0","p004","2","1","","","","","","3000","","","[""stims/images/sloth.png"",""stims/images/wombat.png"",""stims/images/raccoon.png"",""stims/images/manatee.png"",""stims/images/narwhal.png"",""stims/images/bear.png"",""stims/images/rabbit.png"",""stims/images/dolphin.png""]","","","","","2","","","stims/images/bear.png","","","","","","right","","","","active","0","","stims/audio/its_wombat.wav","[""stims/images/bear.png"",""stims/images/wombat.png""]"
"coact-grid","30","92333","0.0-30.0","p004","2","1","","","","","","2528.0000000000146","","","[""stims/images/manatee.png"",""stims/images/narwhal.png"",""stims/images/bear.png"",""stims/images/wombat.png"",""stims/images/dolphin.png"",""stims/images/sloth.png"",""stims/images/rabbit.png"",""stims/images/raccoon.png""]","","","","","2","","","","","[0,4]","[""stims/images/manatee.png"",""stims/images/dolphin.png""]","[""manatee"",""dolphin""]","[""stims/audio/thats_manatee.wav"",""stims/audio/thats_dolphin.wav""]","right","[""stims/images/dolphin.png"",""stims/images/manatee.png""]","[""stims/audio/thats_dolphin.wav"",""stims/audio/thats_manatee.wav""]","[""dolphin"",""manatee""]","passive","1","","",""
"coact-grid-choice","31","95213","0.0-31.0","p004","2","1","","","","","","2880","","","[""stims/images/manatee.png"",""stims/images/narwhal.png"",""stims/images/bear.png"",""stims/images/wombat.png"",""stims/images/dolphin.png"",""stims/images/sloth.png"",""stims/images/rabbit.png"",""stims/images/raccoon.png""]","","","","","2","","","stims/images/dolphin.png","","","","","","right","[""stims/images/dolphin.png"",""stims/images/manatee.png""]","[""stims/audio/thats_dolphin.wav"",""stims/audio/thats_manatee.wav""]","[""dolphin"",""manatee""]","active","1","1","stims/audio/thats_manatee.wav","[""stims/images/manatee.png"",""stims/images/dolphin.png""]"
"coact-grid-choice-audio","32","98222","0.0-32.0","p004","2","1","","","","","","3003","","","[""stims/images/manatee.png"",""stims/images/narwhal.png"",""stims/images/bear.png"",""stims/images/wombat.png"",""stims/images/dolphin.png"",""stims/images/sloth.png"",""stims/images/rabbit.png"",""stims/images/raccoon.png""]","","","","","2","","","stims/images/dolphin.png","","","","","","right","","","","active","1","","stims/audio/thats_manatee.wav","[""stims/images/manatee.png"",""stims/images/dolphin.png""]"
"coact-grid","33","102028","0.0-33.0","p004","2","1","","","","","","2499","","","[""stims/images/narwhal.png"",""stims/images/rabbit.png"",""stims/images/sloth.png"",""stims/images/bear.png"",""stims/images/dolphin.png"",""stims/images/wombat.png"",""stims/images/raccoon.png"",""stims/images/manatee.png""]","","","","","2","","","","","[3,7]","[""stims/images/bear.png"",""stims/images/manatee.png""]","[""bear"",""manatee""]","[""stims/audio/thats_bear.wav"",""stims/audio/thats_manatee.wav""]","right","[""stims/images/manatee.png"",""stims/images/bear.png""]","[""stims/audio/thats_manatee.wav"",""stims/audio/thats_bear.wav""]","[""manatee"",""bear""]","passive","2","","",""
"coact-grid-choice","34","103685","0.0-34.0","p004","2","1","","","","","","1656.0000000000146","","","[""stims/images/narwhal.png"",""stims/images/rabbit.png"",""stims/images/sloth.png"",""stims/images/bear.png"",""stims/images/dolphin.png"",""stims/images/wombat.png"",""stims/images/raccoon.png"",""stims/images/manatee.png""]","","","","","2","","","stims/images/bear.png","","","","","","right","[""stims/images/manatee.png"",""stims/images/bear.png""]","[""stims/audio/thats_manatee.wav"",""stims/audio/thats_bear.wav""]","[""manatee"",""bear""]","active","2","0","stims/audio/thats_manatee.wav","[""stims/images/bear.png"",""stims/images/manatee.png""]"
"coact-grid-choice-audio","35","106693","0.0-35.0","p004","2","1","","","","","","3000","","","[""stims/images/narwhal.png"",""stims/images/rabbit.png"",""stims/images/sloth.png"",""stims/images/bear.png"",""stims/images/dolphin.png"",""stims/images/wombat.png"",""stims/images/raccoon.png"",""stims/images/manatee.png""]","","","","","2","","","stims/images/bear.png","","","","","","right","","","","active","2","","stims/audio/thats_manatee.wav","[""stims/images/bear.png"",""stims/images/manatee.png""]"
"coact-grid","36","110224","0.0-36.0","p004","2","1","","","","","","2225.0000000000146","","","[""stims/images/raccoon.png"",""stims/images/rabbit.png"",""stims/images/narwhal.png"",""stims/images/sloth.png"",""stims/images/manatee.png"",""stims/images/bear.png"",""stims/images/dolphin.png"",""stims/images/wombat.png""]","","","","","2","","","","","[3,6]","[""stims/images/sloth.png"",""stims/images/dolphin.png""]","[""sloth"",""dolphin""]","[""stims/audio/its_sloth.wav"",""stims/audio/its_dolphin.wav""]","left","[""stims/images/sloth.png"",""stims/images/dolphin.png""]","[""stims/audio/its_sloth.wav"",""stims/audio/its_dolphin.wav""]","[""sloth"",""dolphin""]","passive","3","","",""
"coact-grid-choice","37","111873","0.0-37.0","p004","2","1","","","","","","1647","","","[""stims/images/raccoon.png"",""stims/images/rabbit.png"",""stims/images/narwhal.png"",""stims/images/sloth.png"",""stims/images/manatee.png"",""stims/images/bear.png"",""stims/images/dolphin.png"",""stims/images/wombat.png""]","","","","","2","","","stims/images/dolphin.png","","","","","","left","[""stims/images/sloth.png"",""stims/images/dolphin.png""]","[""stims/audio/its_sloth.wav"",""stims/audio/its_dolphin.wav""]","[""sloth"",""dolphin""]","active","3","1","stims/audio/its_dolphin.wav","[""stims/images/sloth.png"",""stims/images/dolphin.png""]"
"coact-grid-choice-audio","38","114882","0.0-38.0","p004","2","1","","","","","","3000","","","[""stims/images/raccoon.png"",""stims/images/rabbit.png"",""stims/images/narwhal.png"",""stims/images/sloth.png"",""stims/images/manatee.png"",""stims/images/bear.png"",""stims/images/dolphin.png"",""stims/images/wombat.png""]","","","","","2","","","stims/images/dolphin.png","","","","","","left","","","","active","3","","stims/audio/its_dolphin.wav","[""stims/images/sloth.png"",""stims/images/dolphin.png""]"
"coact-grid","39","118496","0.0-39.0","p004","2","1","","","","","","2307","","","[""stims/images/sloth.png"",""stims/images/dolphin.png"",""stims/images/manatee.png"",""stims/images/wombat.png"",""stims/images/bear.png"",""stims/images/narwhal.png"",""stims/images/raccoon.png"",""stims/images/rabbit.png""]","","","","","2","","","","","[4,5]","[""stims/images/bear.png"",""stims/images/narwhal.png""]","[""bear"",""narwhal""]","[""stims/audio/thats_bear.wav"",""stims/audio/thats_narwhal.wav""]","left","[""stims/images/bear.png"",""stims/images/narwhal.png""]","[""stims/audio/thats_bear.wav"",""stims/audio/thats_narwhal.wav""]","[""bear"",""narwhal""]","passive","4","","",""
"coact-grid-choice","40","120278","0.0-40.0","p004","2","1","","","","","","1782","","","[""stims/images/sloth.png"",""stims/images/dolphin.png"",""stims/images/manatee.png"",""stims/images/wombat.png"",""stims/images/bear.png"",""stims/images/narwhal.png"",""stims/images/raccoon.png"",""stims/images/rabbit.png""]","","","","","2","","","stims/images/narwhal.png","","","","","","left","[""stims/images/bear.png"",""stims/images/narwhal.png""]","[""stims/audio/thats_bear.wav"",""stims/audio/thats_narwhal.wav""]","[""bear"",""narwhal""]","active","4","1","stims/audio/thats_narwhal.wav","[""stims/images/bear.png"",""stims/images/narwhal.png""]"
"coact-grid-choice-audio","41","123289","0.0-41.0","p004","2","1","","","","","","3003","","","[""stims/images/sloth.png"",""stims/images/dolphin.png"",""stims/images/manatee.png"",""stims/images/wombat.png"",""stims/images/bear.png"",""stims/images/narwhal.png"",""stims/images/raccoon.png"",""stims/images/rabbit.png""]","","","","","2","","","stims/images/narwhal.png","","","","","","left","","","","active","4","","stims/audio/thats_narwhal.wav","[""stims/images/bear.png"",""stims/images/narwhal.png""]"
"coact-grid","42","126993","0.0-42.0","p004","2","1","","","","","","2397","","","[""stims/images/dolphin.png"",""stims/images/bear.png"",""stims/images/narwhal.png"",""stims/images/manatee.png"",""stims/images/raccoon.png"",""stims/images/rabbit.png"",""stims/images/sloth.png"",""stims/images/wombat.png""]","","","","","2","","","","","[5,4]","[""stims/images/rabbit.png"",""stims/images/raccoon.png""]","[""rabbit"",""raccoon""]","[""stims/audio/its_rabbit.wav"",""stims/audio/its_raccoon.wav""]","left","[""stims/images/rabbit.png"",""stims/images/raccoon.png""]","[""stims/audio/its_rabbit.wav"",""stims/audio/its_raccoon.wav""]","[""rabbit"",""raccoon""]","passive","5","","",""
"coact-grid-choice","43","128265","0.0-43.0","p004","2","1","","","","","","1270.000000000029","","","[""stims/images/dolphin.png"",""stims/images/bear.png"",""stims/images/narwhal.png"",""stims/images/manatee.png"",""stims/images/raccoon.png"",""stims/images/rabbit.png"",""stims/images/sloth.png"",""stims/images/wombat.png""]","","","","","2","","","stims/images/raccoon.png","","","","","","left","[""stims/images/rabbit.png"",""stims/images/raccoon.png""]","[""stims/audio/its_rabbit.wav"",""stims/audio/its_raccoon.wav""]","[""rabbit"",""raccoon""]","active","5","1","stims/audio/its_raccoon.wav","[""stims/images/rabbit.png"",""stims/images/raccoon.png""]"
"coact-grid-choice-audio","44","131274","0.0-44.0","p004","2","1","","","","","","3003","","","[""stims/images/dolphin.png"",""stims/images/bear.png"",""stims/images/narwhal.png"",""stims/images/manatee.png"",""stims/images/raccoon.png"",""stims/images/rabbit.png"",""stims/images/sloth.png"",""stims/images/wombat.png""]","","","","","2","","","stims/images/raccoon.png","","","","","","left","","","","active","5","","stims/audio/its_raccoon.wav","[""stims/images/rabbit.png"",""stims/images/raccoon.png""]"
"html-button-response","45","139862","0.0-45.0","p004","2","1","","","","","","8582","","0","","","","","","","","","","","","","","","","","","","","","","",""
"coact-test-prompt","46","143598","0.0-46.0","p004","2","1","","","","","","3734.000000000029","","","[""stims/images/cat.png"",""stims/images/cow.png"",""stims/images/wolf.png"",""stims/images/horse.png"",""stims/images/frog.png"",""stims/images/squirrel.png"",""stims/images/butterfly.png"",""stims/images/duck.png""]","cow","stims/images/cow.png","familiar","practice_posttest","familiar","","","","","","","","","","","","","","","","",""
"coact-test","47","146757","0.0-47.0","p004","2","1","","","","","","151166.43466666667","","","[""stims/images/cat.png"",""stims/images/cow.png"",""stims/images/wolf.png"",""stims/images/horse.png"",""stims/images/frog.png"",""stims/images/squirrel.png"",""stims/images/butterfly.png"",""stims/images/duck.png""]","cow","","familiar","practice_posttest","familiar","stims/audio/wheres_cow.wav","1","stims/images/cow.png","1","","","","","","","","","","","","",""
"coact-test-prompt","48","148567","0.0-48.0","p004","2","1","","","","","","1808.999999999971","","","[""stims/images/cat.png"",""stims/images/cow.png"",""stims/images/wolf.png"",""stims/images/butterfly.png"",""stims/images/horse.png"",""stims/images/duck.png"",""stims/images/frog.png"",""stims/images/squirrel.png""]","butterfly","stims/images/butterfly.png","familiar","practice_posttest","familiar","","","","","","","","","","","","","","","","",""
"coact-test","49","151586","0.0-49.0","p004","2","1","","","","","","155991.4666666667","","","[""stims/images/cat.png"",""stims/images/cow.png"",""stims/images/wolf.png"",""stims/images/butterfly.png"",""stims/images/horse.png"",""stims/images/duck.png"",""stims/images/frog.png"",""stims/images/squirrel.png""]","butterfly","","familiar","practice_posttest","familiar","stims/audio/wheres_butterfly.wav","3","stims/images/butterfly.png","1","","","","","","","","","","","","",""
"coact-test-prompt","50","152469","0.0-50.0","p004","2","1","","","","","","881","","","[""stims/images/raccoon.png"",""stims/images/dolphin.png"",""stims/images/wombat.png"",""stims/images/sloth.png"",""stims/images/narwhal.png"",""stims/images/rabbit.png"",""stims/images/manatee.png"",""stims/images/bear.png""]","rabbit","stims/images/rabbit.png","familiar","posttest","2","","","","","","","","","","","","","","","","",""
"coact-test","51","156730","0.0-51.0","p004","2","1","","","","","","161131.56533333333","","","[""stims/images/raccoon.png"",""stims/images/dolphin.png"",""stims/images/wombat.png"",""stims/images/sloth.png"",""stims/images/narwhal.png"",""stims/images/rabbit.png"",""stims/images/manatee.png"",""stims/images/bear.png""]","rabbit","","familiar","posttest","2","stims/audio/find_rabbit.wav","5","stims/images/rabbit.png","1","","","","","","","","","","","","",""
"coact-test-prompt","52","157755","0.0-52.0","p004","2","1","","","","","","1025","","","[""stims/images/bear.png"",""stims/images/manatee.png"",""stims/images/wombat.png"",""stims/images/narwhal.png"",""stims/images/sloth.png"",""stims/images/rabbit.png"",""stims/images/raccoon.png"",""stims/images/dolphin.png""]","wombat","stims/images/wombat.png","unfamiliar","posttest","2","","","","","","","","","","","","","","","","",""
"coact-test","53","163076","0.0-53.0","p004","2","1","","","","","","167472.27733333333","","","[""stims/images/bear.png"",""stims/images/manatee.png"",""stims/images/wombat.png"",""stims/images/narwhal.png"",""stims/images/sloth.png"",""stims/images/rabbit.png"",""stims/images/raccoon.png"",""stims/images/dolphin.png""]","wombat","","unfamiliar","posttest","2","stims/audio/wheres_wombat.wav","2","stims/images/wombat.png","1","","","","","","","","","","","","",""
"coact-test-prompt","54","164668","0.0-54.0","p004","2","1","","","","","","1591","","","[""stims/images/wombat.png"",""stims/images/bear.png"",""stims/images/raccoon.png"",""stims/images/sloth.png"",""stims/images/rabbit.png"",""stims/images/manatee.png"",""stims/images/dolphin.png"",""stims/images/narwhal.png""]","raccoon","stims/images/raccoon.png","somewhat familiar","posttest","2","","","","","","","","","","","","","","","","",""
"coact-test","55","168169","0.0-55.0","p004","2","1","","","","","","172558.36533333332","","","[""stims/images/wombat.png"",""stims/images/bear.png"",""stims/images/raccoon.png"",""stims/images/sloth.png"",""stims/images/rabbit.png"",""stims/images/manatee.png"",""stims/images/dolphin.png"",""stims/images/narwhal.png""]","raccoon","","somewhat familiar","posttest","2","stims/audio/find_raccoon.wav","2","stims/images/raccoon.png","1","","","","","","","","","","","","",""
"coact-test-prompt","56","169787","0.0-56.0","p004","2","1","","","","","","1617.000000000029","","","[""stims/images/narwhal.png"",""stims/images/manatee.png"",""stims/images/wombat.png"",""stims/images/bear.png"",""stims/images/dolphin.png"",""stims/images/raccoon.png"",""stims/images/sloth.png"",""stims/images/rabbit.png""]","dolphin","stims/images/dolphin.png","somewhat familiar","posttest","2","","","","","","","","","","","","","","","","",""
"coact-test","57","172724","0.0-57.0","p004","2","1","","","","","","177108.24533333333","","","[""stims/images/narwhal.png"",""stims/images/manatee.png"",""stims/images/wombat.png"",""stims/images/bear.png"",""stims/images/dolphin.png"",""stims/images/raccoon.png"",""stims/images/sloth.png"",""stims/images/rabbit.png""]","dolphin","","somewhat familiar","posttest","2","stims/audio/wheres_dolphin.wav","4","stims/images/dolphin.png","1","","","","","","","","","","","","",""
"coact-test-prompt","58","173139","0.0-58.0","p004","2","1","","","","","","414","","","[""stims/images/raccoon.png"",""stims/images/manatee.png"",""stims/images/wombat.png"",""stims/images/dolphin.png"",""stims/images/rabbit.png"",""stims/images/narwhal.png"",""stims/images/bear.png"",""stims/images/sloth.png""]","narwhal","stims/images/narwhal.png","unfamiliar","posttest","2","","","","","","","","","","","","","","","","",""
"coact-test","59","176156","0.0-59.0","p004","2","1","","","","","","180537.89333333334","","","[""stims/images/raccoon.png"",""stims/images/manatee.png"",""stims/images/wombat.png"",""stims/images/dolphin.png"",""stims/images/rabbit.png"",""stims/images/narwhal.png"",""stims/images/bear.png"",""stims/images/sloth.png""]","narwhal","","unfamiliar","posttest","2","stims/audio/wheres_narwhal.wav","5","stims/images/narwhal.png","1","","","","","","","","","","","","",""
"coact-test-prompt","60","177176","0.0-60.0","p004","2","1","","","","","","1019","","","[""stims/images/manatee.png"",""stims/images/rabbit.png"",""stims/images/narwhal.png"",""stims/images/raccoon.png"",""stims/images/dolphin.png"",""stims/images/bear.png"",""stims/images/sloth.png"",""stims/images/wombat.png""]","bear","stims/images/bear.png","familiar","posttest","2","","","","","","","","","","","","","","","","",""
"coact-test","61","179800","0.0-61.0","p004","2","1","","","","","","184177.856","","","[""stims/images/manatee.png"",""stims/images/rabbit.png"",""stims/images/narwhal.png"",""stims/images/raccoon.png"",""stims/images/dolphin.png"",""stims/images/bear.png"",""stims/images/sloth.png"",""stims/images/wombat.png""]","bear","","familiar","posttest","2","stims/audio/find_bear.wav","5","stims/images/bear.png","1","","","","","","","","","","","","",""
"coact-test-prompt","62","180360","0.0-62.0","p004","2","1","","","","","","559","","","[""stims/images/dolphin.png"",""stims/images/bear.png"",""stims/images/raccoon.png"",""stims/images/rabbit.png"",""stims/images/narwhal.png"",""stims/images/wombat.png"",""stims/images/sloth.png"",""stims/images/manatee.png""]","sloth","stims/images/sloth.png","somewhat unfamiliar","posttest","2","","","","","","","","","","","","","","","","",""
"coact-test","63","186112","0.0-63.0","p004","2","1","","","","","","190487.672","","","[""stims/images/dolphin.png"",""stims/images/bear.png"",""stims/images/raccoon.png"",""stims/images/rabbit.png"",""stims/images/narwhal.png"",""stims/images/wombat.png"",""stims/images/sloth.png"",""stims/images/manatee.png""]","sloth","","somewhat unfamiliar","posttest","2","stims/audio/wheres_sloth.wav","6","stims/images/sloth.png","1","","","","","","","","","","","","",""
"coact-test-prompt","64","186706","0.0-64.0","p004","2","1","","","","","","592","","","[""stims/images/dolphin.png"",""stims/images/raccoon.png"",""stims/images/bear.png"",""stims/images/manatee.png"",""stims/images/wombat.png"",""stims/images/sloth.png"",""stims/images/narwhal.png"",""stims/images/rabbit.png""]","manatee","stims/images/manatee.png","somewhat unfamiliar","posttest","2","","","","","","","","","","","","","","","","",""
"coact-test","65","189914","0.0-65.0","p004","2","1","","","","","","194283.328","","","[""stims/images/dolphin.png"",""stims/images/raccoon.png"",""stims/images/bear.png"",""stims/images/manatee.png"",""stims/images/wombat.png"",""stims/images/sloth.png"",""stims/images/narwhal.png"",""stims/images/rabbit.png""]","manatee","","somewhat unfamiliar","posttest","2","stims/audio/find_manatee.wav","3","stims/images/manatee.png","1","","","","","","","","","","","","",""
