trial_type,trial_index,time_elapsed,internal_node_id,subject_id,subject,condition,condition_vector,condition_name,success,timeout,failed_images,failed_audio,failed_video,rt,stimulus,response,images,cur_target,cur_target_image,cur_target_type,round_type,set,test_audio,choice,chosen_image,choices,chosen_images,chosen_items,chosen_audio_items,first_choice_location,chosen_images_in_order,chosen_audio_in_order,chosen_items_in_order,sample_num,chosen_index,chosen_audio,central_images
pavlovia,0,3,0.0-0.0,p003,P003,ap,"[[""active"",""active""],[""passive"",""active""]]","[""all_active"",""passive_caregiver_active_child""]",,,,,,,,,,,,,,,,,,,,,,,,,,,,,
preload,1,122,0.0-1.0,p003,P003,ap,"[[""active"",""active""],[""passive"",""active""]]","[""all_active"",""passive_caregiver_active_child""]",TRUE,FALSE,[],[],[],,,,,,,,,,,,,,,,,,,,,,,,
html-button-response,2,23247,0.0-2.0,p003,P003,ap,"[[""active"",""active""],[""passive"",""active""]]","[""all_active"",""passive_caregiver_active_child""]",,,,,,23125,,0,,,,,,,,,,,,,,,,,,,,,
coact-test-prompt,3,25313,0.0-3.0,p003,P003,ap,"[[""active"",""active""],[""passive"",""active""]]","[""all_active"",""passive_caregiver_active_child""]",,,,,,2063,,,"[""stims/images/cow.png"",""stims/images/squirrel.png"",""stims/images/horse.png"",""stims/images/cat.png"",""stims/images/wolf.png"",""stims/images/duck.png"",""stims/images/butterfly.png"",""stims/images/frog.png""]",duck,stims/images/duck.png,familiar,practice_pretest,familiar,,,,,,,,,,,,,,,
coact-test,4,28371,0.0-4.0,p003,P003,ap,"[[""active"",""active""],[""passive"",""active""]]","[""all_active"",""passive_caregiver_active_child""]",,,,,,38654,,,"[""stims/images/cow.png"",""stims/images/squirrel.png"",""stims/images/horse.png"",""stims/images/cat.png"",""stims/images/wolf.png"",""stims/images/duck.png"",""stims/images/butterfly.png"",""stims/images/frog.png""]",duck,stims/images/duck.png,familiar,practice_pretest,familiar,stims/audio/wheres_duck.wav,5,stims/images/duck.png,,,,,,,,,,,,
coact-test-prompt,5,29844,0.0-5.0,p003,P003,ap,"[[""active"",""active""],[""passive"",""active""]]","[""all_active"",""passive_caregiver_active_child""]",,,,,,1472,,,"[""stims/images/frog.png"",""stims/images/squirrel.png"",""stims/images/duck.png"",""stims/images/cat.png"",""stims/images/wolf.png"",""stims/images/cow.png"",""stims/images/butterfly.png"",""stims/images/horse.png""]",cat,stims/images/cat.png,familiar,practice_pretest,familiar,,,,,,,,,,,,,,,
coact-test,6,34491,0.0-6.0,p003,P003,ap,"[[""active"",""active""],[""passive"",""active""]]","[""all_active"",""passive_caregiver_active_child""]",,,,,,44770.66933,,,"[""stims/images/frog.png"",""stims/images/squirrel.png"",""stims/images/duck.png"",""stims/images/cat.png"",""stims/images/wolf.png"",""stims/images/cow.png"",""stims/images/butterfly.png"",""stims/images/horse.png""]",cat,stims/images/cat.png,familiar,practice_pretest,familiar,stims/audio/find_cat.wav,3,stims/images/cat.png,,,,,,,,,,,,
coact-test-prompt,7,36065,0.0-7.0,p003,P003,ap,"[[""active"",""active""],[""passive"",""active""]]","[""all_active"",""passive_caregiver_active_child""]",,,,,,1573,,,"[""stims/images/manatee.png"",""stims/images/hippopotamus.png"",""stims/images/elephant.png"",""stims/images/tarsier.png"",""stims/images/lobster.png"",""stims/images/tiger.png"",""stims/images/antelope.png"",""stims/images/pangolin.png""]",manatee,stims/images/manatee.png,somewhat unfamiliar,pretest,1,,,,,,,,,,,,,,,
coact-test,8,45722,0.0-8.0,p003,P003,ap,"[[""active"",""active""],[""passive"",""active""]]","[""all_active"",""passive_caregiver_active_child""]",,,,,,55995.448,,,"[""stims/images/manatee.png"",""stims/images/hippopotamus.png"",""stims/images/elephant.png"",""stims/images/tarsier.png"",""stims/images/lobster.png"",""stims/images/tiger.png"",""stims/images/antelope.png"",""stims/images/pangolin.png""]",manatee,stims/images/manatee.png,somewhat unfamiliar,pretest,1,stims/audio/find_manatee.wav,0,stims/images/manatee.png,,,,,,,,,,,,
coact-test-prompt,9,47522,0.0-9.0,p003,P003,ap,"[[""active"",""active""],[""passive"",""active""]]","[""all_active"",""passive_caregiver_active_child""]",,,,,,1799,,,"[""stims/images/hippopotamus.png"",""stims/images/tiger.png"",""stims/images/lobster.png"",""stims/images/elephant.png"",""stims/images/pangolin.png"",""stims/images/antelope.png"",""stims/images/tarsier.png"",""stims/images/manatee.png""]",tiger,stims/images/tiger.png,familiar,pretest,1,,,,,,,,,,,,,,,
coact-test,10,51802,0.0-10.0,p003,P003,ap,"[[""active"",""active""],[""passive"",""active""]]","[""all_active"",""passive_caregiver_active_child""]",,,,,,62063.992,,,"[""stims/images/hippopotamus.png"",""stims/images/tiger.png"",""stims/images/lobster.png"",""stims/images/elephant.png"",""stims/images/pangolin.png"",""stims/images/antelope.png"",""stims/images/tarsier.png"",""stims/images/manatee.png""]",tiger,stims/images/tiger.png,familiar,pretest,1,stims/audio/wheres_tiger.wav,1,stims/images/tiger.png,,,,,,,,,,,,
coact-test-prompt,11,53373,0.0-11.0,p003,P003,ap,"[[""active"",""active""],[""passive"",""active""]]","[""all_active"",""passive_caregiver_active_child""]",,,,,,1571,,,"[""stims/images/elephant.png"",""stims/images/tarsier.png"",""stims/images/tiger.png"",""stims/images/lobster.png"",""stims/images/manatee.png"",""stims/images/pangolin.png"",""stims/images/hippopotamus.png"",""stims/images/antelope.png""]",lobster,stims/images/lobster.png,somewhat familiar,pretest,1,,,,,,,,,,,,,,,
coact-test,12,58351,0.0-12.0,p003,P003,ap,"[[""active"",""active""],[""passive"",""active""]]","[""all_active"",""passive_caregiver_active_child""]",,,,,,68608.14133,,,"[""stims/images/elephant.png"",""stims/images/tarsier.png"",""stims/images/tiger.png"",""stims/images/lobster.png"",""stims/images/manatee.png"",""stims/images/pangolin.png"",""stims/images/hippopotamus.png"",""stims/images/antelope.png""]",lobster,stims/images/lobster.png,somewhat familiar,pretest,1,stims/audio/find_lobster.wav,3,stims/images/lobster.png,,,,,,,,,,,,
coact-test-prompt,13,59555,0.0-13.0,p003,P003,ap,"[[""active"",""active""],[""passive"",""active""]]","[""all_active"",""passive_caregiver_active_child""]",,,,,,1202,,,"[""stims/images/lobster.png"",""stims/images/elephant.png"",""stims/images/hippopotamus.png"",""stims/images/tiger.png"",""stims/images/antelope.png"",""stims/images/manatee.png"",""stims/images/pangolin.png"",""stims/images/tarsier.png""]",elephant,stims/images/elephant.png,familiar,pretest,1,,,,,,,,,,,,,,,
coact-test,14,64857,0.0-14.0,p003,P003,ap,"[[""active"",""active""],[""passive"",""active""]]","[""all_active"",""passive_caregiver_active_child""]",,,,,,75108.96,,,"[""stims/images/lobster.png"",""stims/images/elephant.png"",""stims/images/hippopotamus.png"",""stims/images/tiger.png"",""stims/images/antelope.png"",""stims/images/manatee.png"",""stims/images/pangolin.png"",""stims/images/tarsier.png""]",elephant,stims/images/elephant.png,familiar,pretest,1,stims/audio/find_elephant.wav,1,stims/images/elephant.png,,,,,,,,,,,,
coact-test-prompt,15,66096,0.0-15.0,p003,P003,ap,"[[""active"",""active""],[""passive"",""active""]]","[""all_active"",""passive_caregiver_active_child""]",,,,,,1238,,,"[""stims/images/tiger.png"",""stims/images/hippopotamus.png"",""stims/images/tarsier.png"",""stims/images/elephant.png"",""stims/images/lobster.png"",""stims/images/antelope.png"",""stims/images/manatee.png"",""stims/images/pangolin.png""]",hippopotamus,stims/images/hippopotamus.png,somewhat familiar,pretest,1,,,,,,,,,,,,,,,
coact-test,16,71946,0.0-16.0,p003,P003,ap,"[[""active"",""active""],[""passive"",""active""]]","[""all_active"",""passive_caregiver_active_child""]",,,,,,82191.41867,,,"[""stims/images/tiger.png"",""stims/images/hippopotamus.png"",""stims/images/tarsier.png"",""stims/images/elephant.png"",""stims/images/lobster.png"",""stims/images/antelope.png"",""stims/images/manatee.png"",""stims/images/pangolin.png""]",hippopotamus,stims/images/hippopotamus.png,somewhat familiar,pretest,1,stims/audio/wheres_hippopotamus.wav,1,stims/images/hippopotamus.png,,,,,,,,,,,,
coact-test-prompt,17,72916,0.0-17.0,p003,P003,ap,"[[""active"",""active""],[""passive"",""active""]]","[""all_active"",""passive_caregiver_active_child""]",,,,,,968,,,"[""stims/images/elephant.png"",""stims/images/tiger.png"",""stims/images/manatee.png"",""stims/images/tarsier.png"",""stims/images/antelope.png"",""stims/images/pangolin.png"",""stims/images/lobster.png"",""stims/images/hippopotamus.png""]",tarsier,stims/images/tarsier.png,unfamiliar,pretest,1,,,,,,,,,,,,,,,
coact-test,18,78591,0.0-18.0,p003,P003,ap,"[[""active"",""active""],[""passive"",""active""]]","[""all_active"",""passive_caregiver_active_child""]",,,,,,88829.6,,,"[""stims/images/elephant.png"",""stims/images/tiger.png"",""stims/images/manatee.png"",""stims/images/tarsier.png"",""stims/images/antelope.png"",""stims/images/pangolin.png"",""stims/images/lobster.png"",""stims/images/hippopotamus.png""]",tarsier,stims/images/tarsier.png,unfamiliar,pretest,1,stims/audio/find_tarsier.wav,5,stims/images/pangolin.png,,,,,,,,,,,,
coact-test-prompt,19,80008,0.0-19.0,p003,P003,ap,"[[""active"",""active""],[""passive"",""active""]]","[""all_active"",""passive_caregiver_active_child""]",,,,,,1416,,,"[""stims/images/tarsier.png"",""stims/images/hippopotamus.png"",""stims/images/antelope.png"",""stims/images/elephant.png"",""stims/images/pangolin.png"",""stims/images/lobster.png"",""stims/images/manatee.png"",""stims/images/tiger.png""]",antelope,stims/images/antelope.png,somewhat unfamiliar,pretest,1,,,,,,,,,,,,,,,
coact-test,20,84494,0.0-20.0,p003,P003,ap,"[[""active"",""active""],[""passive"",""active""]]","[""all_active"",""passive_caregiver_active_child""]",,,,,,94725.50667,,,"[""stims/images/tarsier.png"",""stims/images/hippopotamus.png"",""stims/images/antelope.png"",""stims/images/elephant.png"",""stims/images/pangolin.png"",""stims/images/lobster.png"",""stims/images/manatee.png"",""stims/images/tiger.png""]",antelope,stims/images/antelope.png,somewhat unfamiliar,pretest,1,stims/audio/wheres_antelope.wav,6,stims/images/manatee.png,,,,,,,,,,,,
coact-test-prompt,21,85970,0.0-21.0,p003,P003,ap,"[[""active"",""active""],[""passive"",""active""]]","[""all_active"",""passive_caregiver_active_child""]",,,,,,1475,,,"[""stims/images/tarsier.png"",""stims/images/elephant.png"",""stims/images/hippopotamus.png"",""stims/images/lobster.png"",""stims/images/manatee.png"",""stims/images/antelope.png"",""stims/images/tiger.png"",""stims/images/pangolin.png""]",pangolin,stims/images/pangolin.png,unfamiliar,pretest,1,,,,,,,,,,,,,,,
coact-test,22,91723,0.0-22.0,p003,P003,ap,"[[""active"",""active""],[""passive"",""active""]]","[""all_active"",""passive_caregiver_active_child""]",,,,,,101949.544,,,"[""stims/images/tarsier.png"",""stims/images/elephant.png"",""stims/images/hippopotamus.png"",""stims/images/lobster.png"",""stims/images/manatee.png"",""stims/images/antelope.png"",""stims/images/tiger.png"",""stims/images/pangolin.png""]",pangolin,stims/images/pangolin.png,unfamiliar,pretest,1,stims/audio/wheres_pangolin.wav,5,stims/images/antelope.png,,,,,,,,,,,,
html-button-response,23,108740,0.0-23.0,p003,P003,ap,"[[""active"",""active""],[""passive"",""active""]]","[""all_active"",""passive_caregiver_active_child""]",,,,,,17017,,0,,,,,,,,,,,,,,,,,,,,,
coact-grid,24,114918,0.0-24.0,p003,P003,ap,"[[""active"",""active""],[""passive"",""active""]]","[""all_active"",""passive_caregiver_active_child""]",,,,,,4868,,,"[""stims/images/butterfly.png"",""stims/images/duck.png"",""stims/images/squirrel.png"",""stims/images/cow.png"",""stims/images/cat.png"",""stims/images/horse.png"",""stims/images/wolf.png"",""stims/images/frog.png""]",,,,,familiar,,,,"[6,0]","[""stims/images/wolf.png"",""stims/images/butterfly.png""]","[""wolf"",""butterfly""]","[""stims/audio/its_wolf.wav"",""stims/audio/its_butterfly.wav""]",right,"[""stims/images/butterfly.png"",""stims/images/wolf.png""]","[""stims/audio/its_butterfly.wav"",""stims/audio/its_wolf.wav""]","[""butterfly"",""wolf""]",0,,,
coact-grid-choice,25,117200,0.0-25.0,p003,P003,ap,"[[""active"",""active""],[""passive"",""active""]]","[""all_active"",""passive_caregiver_active_child""]",,,,,,2279,,,"[""stims/images/butterfly.png"",""stims/images/duck.png"",""stims/images/squirrel.png"",""stims/images/cow.png"",""stims/images/cat.png"",""stims/images/horse.png"",""stims/images/wolf.png"",""stims/images/frog.png""]",,,,,familiar,,,stims/images/wolf.png,,,,,right,"[""stims/images/butterfly.png"",""stims/images/wolf.png""]","[""stims/audio/its_butterfly.wav"",""stims/audio/its_wolf.wav""]","[""butterfly"",""wolf""]",0,0,stims/audio/its_butterfly.wav,"[""stims/images/wolf.png"",""stims/images/butterfly.png""]"
coact-grid-choice-audio,26,120212,0.0-26.0,p003,P003,ap,"[[""active"",""active""],[""passive"",""active""]]","[""all_active"",""passive_caregiver_active_child""]",,,,,,3003,,,,,,,,familiar,,,stims/images/wolf.png,,,,,right,,,,0,,stims/audio/its_butterfly.wav,
coact-grid,27,123889,0.0-27.0,p003,P003,ap,"[[""active"",""active""],[""passive"",""active""]]","[""all_active"",""passive_caregiver_active_child""]",,,,,,2369,,,"[""stims/images/antelope.png"",""stims/images/tarsier.png"",""stims/images/tiger.png"",""stims/images/pangolin.png"",""stims/images/elephant.png"",""stims/images/lobster.png"",""stims/images/manatee.png"",""stims/images/hippopotamus.png""]",,,,,1,,,,"[5,1]","[""stims/images/lobster.png"",""stims/images/tarsier.png""]","[""lobster"",""tarsier""]","[""stims/audio/its_lobster.wav"",""stims/audio/its_tarsier.wav""]",right,"[""stims/images/tarsier.png"",""stims/images/lobster.png""]","[""stims/audio/its_tarsier.wav"",""stims/audio/its_lobster.wav""]","[""tarsier"",""lobster""]",0,,,
coact-grid-choice,28,126538,0.0-28.0,p003,P003,ap,"[[""active"",""active""],[""passive"",""active""]]","[""all_active"",""passive_caregiver_active_child""]",,,,,,2649,,,"[""stims/images/antelope.png"",""stims/images/tarsier.png"",""stims/images/tiger.png"",""stims/images/pangolin.png"",""stims/images/elephant.png"",""stims/images/lobster.png"",""stims/images/manatee.png"",""stims/images/hippopotamus.png""]",,,,,1,,,stims/images/lobster.png,,,,,right,"[""stims/images/tarsier.png"",""stims/images/lobster.png""]","[""stims/audio/its_tarsier.wav"",""stims/audio/its_lobster.wav""]","[""tarsier"",""lobster""]",0,0,stims/audio/its_tarsier.wav,"[""stims/images/lobster.png"",""stims/images/tarsier.png""]"
coact-grid-choice-audio,29,129547,0.0-29.0,p003,P003,ap,"[[""active"",""active""],[""passive"",""active""]]","[""all_active"",""passive_caregiver_active_child""]",,,,,,3000,,,,,,,,1,,,stims/images/lobster.png,,,,,right,,,,0,,stims/audio/its_tarsier.wav,
coact-grid,30,133611,0.0-30.0,p003,P003,ap,"[[""active"",""active""],[""passive"",""active""]]","[""all_active"",""passive_caregiver_active_child""]",,,,,,2756,,,"[""stims/images/lobster.png"",""stims/images/hippopotamus.png"",""stims/images/antelope.png"",""stims/images/pangolin.png"",""stims/images/elephant.png"",""stims/images/tarsier.png"",""stims/images/tiger.png"",""stims/images/manatee.png""]",,,,,1,,,,"[0,2]","[""stims/images/lobster.png"",""stims/images/antelope.png""]","[""lobster"",""antelope""]","[""stims/audio/its_lobster.wav"",""stims/audio/its_antelope.wav""]",left,"[""stims/images/lobster.png"",""stims/images/antelope.png""]","[""stims/audio/its_lobster.wav"",""stims/audio/its_antelope.wav""]","[""lobster"",""antelope""]",1,,,
coact-grid-choice,31,136211,0.0-31.0,p003,P003,ap,"[[""active"",""active""],[""passive"",""active""]]","[""all_active"",""passive_caregiver_active_child""]",,,,,,2598,,,"[""stims/images/lobster.png"",""stims/images/hippopotamus.png"",""stims/images/antelope.png"",""stims/images/pangolin.png"",""stims/images/elephant.png"",""stims/images/tarsier.png"",""stims/images/tiger.png"",""stims/images/manatee.png""]",,,,,1,,,stims/images/antelope.png,,,,,left,"[""stims/images/lobster.png"",""stims/images/antelope.png""]","[""stims/audio/its_lobster.wav"",""stims/audio/its_antelope.wav""]","[""lobster"",""antelope""]",1,1,stims/audio/its_antelope.wav,"[""stims/images/lobster.png"",""stims/images/antelope.png""]"
coact-grid-choice-audio,32,139219,0.0-32.0,p003,P003,ap,"[[""active"",""active""],[""passive"",""active""]]","[""all_active"",""passive_caregiver_active_child""]",,,,,,3000,,,,,,,,1,,,stims/images/antelope.png,,,,,left,,,,1,,stims/audio/its_antelope.wav,
coact-grid,33,144645,0.0-33.0,p003,P003,ap,"[[""active"",""active""],[""passive"",""active""]]","[""all_active"",""passive_caregiver_active_child""]",,,,,,4122,,,"[""stims/images/tarsier.png"",""stims/images/pangolin.png"",""stims/images/antelope.png"",""stims/images/manatee.png"",""stims/images/hippopotamus.png"",""stims/images/lobster.png"",""stims/images/elephant.png"",""stims/images/tiger.png""]",,,,,1,,,,"[3,1]","[""stims/images/manatee.png"",""stims/images/pangolin.png""]","[""manatee"",""pangolin""]","[""stims/audio/thats_manatee.wav"",""stims/audio/thats_pangolin.wav""]",left,"[""stims/images/manatee.png"",""stims/images/pangolin.png""]","[""stims/audio/thats_manatee.wav"",""stims/audio/thats_pangolin.wav""]","[""manatee"",""pangolin""]",2,,,
coact-grid-choice,34,146684,0.0-34.0,p003,P003,ap,"[[""active"",""active""],[""passive"",""active""]]","[""all_active"",""passive_caregiver_active_child""]",,,,,,2037,,,"[""stims/images/tarsier.png"",""stims/images/pangolin.png"",""stims/images/antelope.png"",""stims/images/manatee.png"",""stims/images/hippopotamus.png"",""stims/images/lobster.png"",""stims/images/elephant.png"",""stims/images/tiger.png""]",,,,,1,,,stims/images/pangolin.png,,,,,left,"[""stims/images/manatee.png"",""stims/images/pangolin.png""]","[""stims/audio/thats_manatee.wav"",""stims/audio/thats_pangolin.wav""]","[""manatee"",""pangolin""]",2,1,stims/audio/thats_pangolin.wav,"[""stims/images/manatee.png"",""stims/images/pangolin.png""]"
coact-grid-choice-audio,35,149692,0.0-35.0,p003,P003,ap,"[[""active"",""active""],[""passive"",""active""]]","[""all_active"",""passive_caregiver_active_child""]",,,,,,3000,,,,,,,,1,,,stims/images/pangolin.png,,,,,left,,,,2,,stims/audio/thats_pangolin.wav,
coact-grid,36,154247,0.0-36.0,p003,P003,ap,"[[""active"",""active""],[""passive"",""active""]]","[""all_active"",""passive_caregiver_active_child""]",,,,,,3247,,,"[""stims/images/manatee.png"",""stims/images/hippopotamus.png"",""stims/images/antelope.png"",""stims/images/elephant.png"",""stims/images/lobster.png"",""stims/images/tarsier.png"",""stims/images/tiger.png"",""stims/images/pangolin.png""]",,,,,1,,,,"[6,0]","[""stims/images/tiger.png"",""stims/images/manatee.png""]","[""tiger"",""manatee""]","[""stims/audio/thats_tiger.wav"",""stims/audio/thats_manatee.wav""]",left,"[""stims/images/tiger.png"",""stims/images/manatee.png""]","[""stims/audio/thats_tiger.wav"",""stims/audio/thats_manatee.wav""]","[""tiger"",""manatee""]",3,,,
coact-grid-choice,37,156723,0.0-37.0,p003,P003,ap,"[[""active"",""active""],[""passive"",""active""]]","[""all_active"",""passive_caregiver_active_child""]",,,,,,2474,,,"[""stims/images/manatee.png"",""stims/images/hippopotamus.png"",""stims/images/antelope.png"",""stims/images/elephant.png"",""stims/images/lobster.png"",""stims/images/tarsier.png"",""stims/images/tiger.png"",""stims/images/pangolin.png""]",,,,,1,,,stims/images/manatee.png,,,,,left,"[""stims/images/tiger.png"",""stims/images/manatee.png""]","[""stims/audio/thats_tiger.wav"",""stims/audio/thats_manatee.wav""]","[""tiger"",""manatee""]",3,1,stims/audio/thats_manatee.wav,"[""stims/images/tiger.png"",""stims/images/manatee.png""]"
coact-grid-choice-audio,38,159731,0.0-38.0,p003,P003,ap,"[[""active"",""active""],[""passive"",""active""]]","[""all_active"",""passive_caregiver_active_child""]",,,,,,3000,,,,,,,,1,,,stims/images/manatee.png,,,,,left,,,,3,,stims/audio/thats_manatee.wav,
coact-grid,39,164504,0.0-39.0,p003,P003,ap,"[[""active"",""active""],[""passive"",""active""]]","[""all_active"",""passive_caregiver_active_child""]",,,,,,3465,,,"[""stims/images/manatee.png"",""stims/images/antelope.png"",""stims/images/tiger.png"",""stims/images/pangolin.png"",""stims/images/tarsier.png"",""stims/images/lobster.png"",""stims/images/elephant.png"",""stims/images/hippopotamus.png""]",,,,,1,,,,"[5,6]","[""stims/images/lobster.png"",""stims/images/elephant.png""]","[""lobster"",""elephant""]","[""stims/audio/thats_lobster.wav"",""stims/audio/thats_elephant.wav""]",right,"[""stims/images/elephant.png"",""stims/images/lobster.png""]","[""stims/audio/thats_elephant.wav"",""stims/audio/thats_lobster.wav""]","[""elephant"",""lobster""]",4,,,
coact-grid-choice,40,166228,0.0-40.0,p003,P003,ap,"[[""active"",""active""],[""passive"",""active""]]","[""all_active"",""passive_caregiver_active_child""]",,,,,,1723,,,"[""stims/images/manatee.png"",""stims/images/antelope.png"",""stims/images/tiger.png"",""stims/images/pangolin.png"",""stims/images/tarsier.png"",""stims/images/lobster.png"",""stims/images/elephant.png"",""stims/images/hippopotamus.png""]",,,,,1,,,stims/images/lobster.png,,,,,right,"[""stims/images/elephant.png"",""stims/images/lobster.png""]","[""stims/audio/thats_elephant.wav"",""stims/audio/thats_lobster.wav""]","[""elephant"",""lobster""]",4,0,stims/audio/thats_elephant.wav,"[""stims/images/lobster.png"",""stims/images/elephant.png""]"
coact-grid-choice-audio,41,169237,0.0-41.0,p003,P003,ap,"[[""active"",""active""],[""passive"",""active""]]","[""all_active"",""passive_caregiver_active_child""]",,,,,,3000,,,,,,,,1,,,stims/images/lobster.png,,,,,right,,,,4,,stims/audio/thats_elephant.wav,
coact-grid,42,174607,0.0-42.0,p003,P003,ap,"[[""active"",""active""],[""passive"",""active""]]","[""all_active"",""passive_caregiver_active_child""]",,,,,,4063,,,"[""stims/images/elephant.png"",""stims/images/lobster.png"",""stims/images/tarsier.png"",""stims/images/antelope.png"",""stims/images/manatee.png"",""stims/images/hippopotamus.png"",""stims/images/pangolin.png"",""stims/images/tiger.png""]",,,,,1,,,,"[1,5]","[""stims/images/lobster.png"",""stims/images/hippopotamus.png""]","[""lobster"",""hippopotamus""]","[""stims/audio/its_lobster.wav"",""stims/audio/its_hippopotamus.wav""]",right,"[""stims/images/hippopotamus.png"",""stims/images/lobster.png""]","[""stims/audio/its_hippopotamus.wav"",""stims/audio/its_lobster.wav""]","[""hippopotamus"",""lobster""]",5,,,
coact-grid-choice,43,176100,0.0-43.0,p003,P003,ap,"[[""active"",""active""],[""passive"",""active""]]","[""all_active"",""passive_caregiver_active_child""]",,,,,,1491,,,"[""stims/images/elephant.png"",""stims/images/lobster.png"",""stims/images/tarsier.png"",""stims/images/antelope.png"",""stims/images/manatee.png"",""stims/images/hippopotamus.png"",""stims/images/pangolin.png"",""stims/images/tiger.png""]",,,,,1,,,stims/images/hippopotamus.png,,,,,right,"[""stims/images/hippopotamus.png"",""stims/images/lobster.png""]","[""stims/audio/its_hippopotamus.wav"",""stims/audio/its_lobster.wav""]","[""hippopotamus"",""lobster""]",5,1,stims/audio/its_lobster.wav,"[""stims/images/lobster.png"",""stims/images/hippopotamus.png""]"
coact-grid-choice-audio,44,179108,0.0-44.0,p003,P003,ap,"[[""active"",""active""],[""passive"",""active""]]","[""all_active"",""passive_caregiver_active_child""]",,,,,,3000,,,,,,,,1,,,stims/images/hippopotamus.png,,,,,right,,,,5,,stims/audio/its_lobster.wav,
html-button-response,45,192204,0.0-45.0,p003,P003,ap,"[[""active"",""active""],[""passive"",""active""]]","[""all_active"",""passive_caregiver_active_child""]",,,,,,13096,,0,,,,,,,,,,,,,,,,,,,,,
coact-test-prompt,46,194281,0.0-46.0,p003,P003,ap,"[[""active"",""active""],[""passive"",""active""]]","[""all_active"",""passive_caregiver_active_child""]",,,,,,2076,,,"[""stims/images/cow.png"",""stims/images/squirrel.png"",""stims/images/duck.png"",""stims/images/frog.png"",""stims/images/cat.png"",""stims/images/horse.png"",""stims/images/butterfly.png"",""stims/images/wolf.png""]",duck,stims/images/duck.png,familiar,practice_posttest,familiar,,,,,,,,,,,,,,,
coact-test,47,199285,0.0-47.0,p003,P003,ap,"[[""active"",""active""],[""passive"",""active""]]","[""all_active"",""passive_caregiver_active_child""]",,,,,,209409.232,,,"[""stims/images/cow.png"",""stims/images/squirrel.png"",""stims/images/duck.png"",""stims/images/frog.png"",""stims/images/cat.png"",""stims/images/horse.png"",""stims/images/butterfly.png"",""stims/images/wolf.png""]",duck,stims/images/duck.png,familiar,practice_posttest,familiar,stims/audio/wheres_duck.wav,2,stims/images/duck.png,,,,,,,,,,,,
coact-test-prompt,48,200744,0.0-48.0,p003,P003,ap,"[[""active"",""active""],[""passive"",""active""]]","[""all_active"",""passive_caregiver_active_child""]",,,,,,1458,,,"[""stims/images/horse.png"",""stims/images/wolf.png"",""stims/images/cow.png"",""stims/images/frog.png"",""stims/images/butterfly.png"",""stims/images/cat.png"",""stims/images/duck.png"",""stims/images/squirrel.png""]",cat,stims/images/cat.png,familiar,practice_posttest,familiar,,,,,,,,,,,,,,,
coact-test,49,204112,0.0-49.0,p003,P003,ap,"[[""active"",""active""],[""passive"",""active""]]","[""all_active"",""passive_caregiver_active_child""]",,,,,,214230.7707,,,"[""stims/images/horse.png"",""stims/images/wolf.png"",""stims/images/cow.png"",""stims/images/frog.png"",""stims/images/butterfly.png"",""stims/images/cat.png"",""stims/images/duck.png"",""stims/images/squirrel.png""]",cat,stims/images/cat.png,familiar,practice_posttest,familiar,stims/audio/wheres_cat.wav,5,stims/images/cat.png,,,,,,,,,,,,
coact-test-prompt,50,205871,0.0-50.0,p003,P003,ap,"[[""active"",""active""],[""passive"",""active""]]","[""all_active"",""passive_caregiver_active_child""]",,,,,,1757,,,"[""stims/images/antelope.png"",""stims/images/elephant.png"",""stims/images/lobster.png"",""stims/images/tarsier.png"",""stims/images/manatee.png"",""stims/images/pangolin.png"",""stims/images/tiger.png"",""stims/images/hippopotamus.png""]",antelope,stims/images/antelope.png,somewhat unfamiliar,posttest,1,,,,,,,,,,,,,,,
coact-test,51,210805,0.0-51.0,p003,P003,ap,"[[""active"",""active""],[""passive"",""active""]]","[""all_active"",""passive_caregiver_active_child""]",,,,,,220920.6427,,,"[""stims/images/antelope.png"",""stims/images/elephant.png"",""stims/images/lobster.png"",""stims/images/tarsier.png"",""stims/images/manatee.png"",""stims/images/pangolin.png"",""stims/images/tiger.png"",""stims/images/hippopotamus.png""]",antelope,stims/images/antelope.png,somewhat unfamiliar,posttest,1,stims/audio/wheres_antelope.wav,0,stims/images/antelope.png,,,,,,,,,,,,
coact-test-prompt,52,211721,0.0-52.0,p003,P003,ap,"[[""active"",""active""],[""passive"",""active""]]","[""all_active"",""passive_caregiver_active_child""]",,,,,,915,,,"[""stims/images/lobster.png"",""stims/images/elephant.png"",""stims/images/hippopotamus.png"",""stims/images/pangolin.png"",""stims/images/manatee.png"",""stims/images/tarsier.png"",""stims/images/antelope.png"",""stims/images/tiger.png""]",hippopotamus,stims/images/hippopotamus.png,somewhat familiar,posttest,1,,,,,,,,,,,,,,,
coact-test,53,218442,0.0-53.0,p003,P003,ap,"[[""active"",""active""],[""passive"",""active""]]","[""all_active"",""passive_caregiver_active_child""]",,,,,,228550.7947,,,"[""stims/images/lobster.png"",""stims/images/elephant.png"",""stims/images/hippopotamus.png"",""stims/images/pangolin.png"",""stims/images/manatee.png"",""stims/images/tarsier.png"",""stims/images/antelope.png"",""stims/images/tiger.png""]",hippopotamus,stims/images/hippopotamus.png,somewhat familiar,posttest,1,stims/audio/wheres_hippopotamus.wav,2,stims/images/hippopotamus.png,,,,,,,,,,,,
coact-test-prompt,54,219730,0.0-54.0,p003,P003,ap,"[[""active"",""active""],[""passive"",""active""]]","[""all_active"",""passive_caregiver_active_child""]",,,,,,1287,,,"[""stims/images/lobster.png"",""stims/images/manatee.png"",""stims/images/hippopotamus.png"",""stims/images/tiger.png"",""stims/images/pangolin.png"",""stims/images/antelope.png"",""stims/images/tarsier.png"",""stims/images/elephant.png""]",manatee,stims/images/manatee.png,somewhat unfamiliar,posttest,1,,,,,,,,,,,,,,,
coact-test,55,224574,0.0-55.0,p003,P003,ap,"[[""active"",""active""],[""passive"",""active""]]","[""all_active"",""passive_caregiver_active_child""]",,,,,,234675.784,,,"[""stims/images/lobster.png"",""stims/images/manatee.png"",""stims/images/hippopotamus.png"",""stims/images/tiger.png"",""stims/images/pangolin.png"",""stims/images/antelope.png"",""stims/images/tarsier.png"",""stims/images/elephant.png""]",manatee,stims/images/manatee.png,somewhat unfamiliar,posttest,1,stims/audio/find_manatee.wav,5,stims/images/antelope.png,,,,,,,,,,,,
coact-test-prompt,56,225941,0.0-56.0,p003,P003,ap,"[[""active"",""active""],[""passive"",""active""]]","[""all_active"",""passive_caregiver_active_child""]",,,,,,1365,,,"[""stims/images/tarsier.png"",""stims/images/lobster.png"",""stims/images/pangolin.png"",""stims/images/antelope.png"",""stims/images/tiger.png"",""stims/images/hippopotamus.png"",""stims/images/manatee.png"",""stims/images/elephant.png""]",tarsier,stims/images/tarsier.png,unfamiliar,posttest,1,,,,,,,,,,,,,,,
coact-test,57,231325,0.0-57.0,p003,P003,ap,"[[""active"",""active""],[""passive"",""active""]]","[""all_active"",""passive_caregiver_active_child""]",,,,,,241420.5733,,,"[""stims/images/tarsier.png"",""stims/images/lobster.png"",""stims/images/pangolin.png"",""stims/images/antelope.png"",""stims/images/tiger.png"",""stims/images/hippopotamus.png"",""stims/images/manatee.png"",""stims/images/elephant.png""]",tarsier,stims/images/tarsier.png,unfamiliar,posttest,1,stims/audio/find_tarsier.wav,0,stims/images/tarsier.png,,,,,,,,,,,,
coact-test-prompt,58,232687,0.0-58.0,p003,P003,ap,"[[""active"",""active""],[""passive"",""active""]]","[""all_active"",""passive_caregiver_active_child""]",,,,,,1362,,,"[""stims/images/elephant.png"",""stims/images/pangolin.png"",""stims/images/lobster.png"",""stims/images/tarsier.png"",""stims/images/hippopotamus.png"",""stims/images/manatee.png"",""stims/images/tiger.png"",""stims/images/antelope.png""]",lobster,stims/images/lobster.png,somewhat familiar,posttest,1,,,,,,,,,,,,,,,
coact-test,59,236706,0.0-59.0,p003,P003,ap,"[[""active"",""active""],[""passive"",""active""]]","[""all_active"",""passive_caregiver_active_child""]",,,,,,246795.8267,,,"[""stims/images/elephant.png"",""stims/images/pangolin.png"",""stims/images/lobster.png"",""stims/images/tarsier.png"",""stims/images/hippopotamus.png"",""stims/images/manatee.png"",""stims/images/tiger.png"",""stims/images/antelope.png""]",lobster,stims/images/lobster.png,somewhat familiar,posttest,1,stims/audio/wheres_lobster.wav,2,stims/images/lobster.png,,,,,,,,,,,,
coact-test-prompt,60,238063,0.0-60.0,p003,P003,ap,"[[""active"",""active""],[""passive"",""active""]]","[""all_active"",""passive_caregiver_active_child""]",,,,,,1355,,,"[""stims/images/tarsier.png"",""stims/images/manatee.png"",""stims/images/hippopotamus.png"",""stims/images/pangolin.png"",""stims/images/lobster.png"",""stims/images/tiger.png"",""stims/images/antelope.png"",""stims/images/elephant.png""]",pangolin,stims/images/pangolin.png,unfamiliar,posttest,1,,,,,,,,,,,,,,,
coact-test,61,242532,0.0-61.0,p003,P003,ap,"[[""active"",""active""],[""passive"",""active""]]","[""all_active"",""passive_caregiver_active_child""]",,,,,,252615.4507,,,"[""stims/images/tarsier.png"",""stims/images/manatee.png"",""stims/images/hippopotamus.png"",""stims/images/pangolin.png"",""stims/images/lobster.png"",""stims/images/tiger.png"",""stims/images/antelope.png"",""stims/images/elephant.png""]",pangolin,stims/images/pangolin.png,unfamiliar,posttest,1,stims/audio/find_pangolin.wav,3,stims/images/pangolin.png,,,,,,,,,,,,
coact-test-prompt,62,243676,0.0-62.0,p003,P003,ap,"[[""active"",""active""],[""passive"",""active""]]","[""all_active"",""passive_caregiver_active_child""]",,,,,,1142,,,"[""stims/images/tarsier.png"",""stims/images/hippopotamus.png"",""stims/images/lobster.png"",""stims/images/antelope.png"",""stims/images/manatee.png"",""stims/images/pangolin.png"",""stims/images/elephant.png"",""stims/images/tiger.png""]",elephant,stims/images/elephant.png,familiar,posttest,1,,,,,,,,,,,,,,,
coact-test,63,247345,0.0-63.0,p003,P003,ap,"[[""active"",""active""],[""passive"",""active""]]","[""all_active"",""passive_caregiver_active_child""]",,,,,,257422.8373,,,"[""stims/images/tarsier.png"",""stims/images/hippopotamus.png"",""stims/images/lobster.png"",""stims/images/antelope.png"",""stims/images/manatee.png"",""stims/images/pangolin.png"",""stims/images/elephant.png"",""stims/images/tiger.png""]",elephant,stims/images/elephant.png,familiar,posttest,1,stims/audio/wheres_elephant.wav,6,stims/images/elephant.png,,,,,,,,,,,,
coact-test-prompt,64,247751,0.0-64.0,p003,P003,ap,"[[""active"",""active""],[""passive"",""active""]]","[""all_active"",""passive_caregiver_active_child""]",,,,,,405,,,"[""stims/images/tiger.png"",""stims/images/manatee.png"",""stims/images/hippopotamus.png"",""stims/images/elephant.png"",""stims/images/pangolin.png"",""stims/images/antelope.png"",""stims/images/lobster.png"",""stims/images/tarsier.png""]",tiger,stims/images/tiger.png,familiar,posttest,1,,,,,,,,,,,,,,,
coact-test,65,253213,0.0-65.0,p003,P003,ap,"[[""active"",""active""],[""passive"",""active""]]","[""all_active"",""passive_caregiver_active_child""]",,,,,,263287.7627,,,"[""stims/images/tiger.png"",""stims/images/manatee.png"",""stims/images/hippopotamus.png"",""stims/images/elephant.png"",""stims/images/pangolin.png"",""stims/images/antelope.png"",""stims/images/lobster.png"",""stims/images/tarsier.png""]",tiger,stims/images/tiger.png,familiar,posttest,1,stims/audio/find_tiger.wav,0,stims/images/tiger.png,,,,,,,,,,,,
html-button-response,66,301785,0.0-66.0,p003,P003,ap,"[[""active"",""active""],[""passive"",""active""]]","[""all_active"",""passive_caregiver_active_child""]",,,,,,48573,,0,,,,,,,,,,,,,,,,,,,,,
coact-test-prompt,67,304052,0.0-67.0,p003,P003,ap,"[[""active"",""active""],[""passive"",""active""]]","[""all_active"",""passive_caregiver_active_child""]",,,,,,2266,,,"[""stims/images/frog.png"",""stims/images/squirrel.png"",""stims/images/cow.png"",""stims/images/horse.png"",""stims/images/butterfly.png"",""stims/images/duck.png"",""stims/images/cat.png"",""stims/images/wolf.png""]",duck,stims/images/duck.png,familiar,practice_pretest,familiar,,,,,,,,,,,,,,,
coact-test,68,308914,0.0-68.0,p003,P003,ap,"[[""active"",""active""],[""passive"",""active""]]","[""all_active"",""passive_caregiver_active_child""]",,,,,,318935.4613,,,"[""stims/images/frog.png"",""stims/images/squirrel.png"",""stims/images/cow.png"",""stims/images/horse.png"",""stims/images/butterfly.png"",""stims/images/duck.png"",""stims/images/cat.png"",""stims/images/wolf.png""]",duck,stims/images/duck.png,familiar,practice_pretest,familiar,stims/audio/wheres_duck.wav,5,stims/images/duck.png,,,,,,,,,,,,
coact-test-prompt,69,309834,0.0-69.0,p003,P003,ap,"[[""active"",""active""],[""passive"",""active""]]","[""all_active"",""passive_caregiver_active_child""]",,,,,,920,,,"[""stims/images/wolf.png"",""stims/images/horse.png"",""stims/images/cow.png"",""stims/images/duck.png"",""stims/images/cat.png"",""stims/images/squirrel.png"",""stims/images/frog.png"",""stims/images/butterfly.png""]",cat,stims/images/cat.png,familiar,practice_pretest,familiar,,,,,,,,,,,,,,,
coact-test,70,312964,0.0-70.0,p003,P003,ap,"[[""active"",""active""],[""passive"",""active""]]","[""all_active"",""passive_caregiver_active_child""]",,,,,,322979.68,,,"[""stims/images/wolf.png"",""stims/images/horse.png"",""stims/images/cow.png"",""stims/images/duck.png"",""stims/images/cat.png"",""stims/images/squirrel.png"",""stims/images/frog.png"",""stims/images/butterfly.png""]",cat,stims/images/cat.png,familiar,practice_pretest,familiar,stims/audio/wheres_cat.wav,4,stims/images/cat.png,,,,,,,,,,,,
coact-test-prompt,71,313491,0.0-71.0,p003,P003,ap,"[[""active"",""active""],[""passive"",""active""]]","[""all_active"",""passive_caregiver_active_child""]",,,,,,526,,,"[""stims/images/dolphin.png"",""stims/images/armadillo.png"",""stims/images/wombat.png"",""stims/images/porcupine.png"",""stims/images/lynx.png"",""stims/images/pig.png"",""stims/images/narwhal.png"",""stims/images/bear.png""]",lynx,stims/images/lynx.png,somewhat unfamiliar,pretest,3,,,,,,,,,,,,,,,
coact-test,72,317269,0.0-72.0,p003,P003,ap,"[[""active"",""active""],[""passive"",""active""]]","[""all_active"",""passive_caregiver_active_child""]",,,,,,327282.0267,,,"[""stims/images/dolphin.png"",""stims/images/armadillo.png"",""stims/images/wombat.png"",""stims/images/porcupine.png"",""stims/images/lynx.png"",""stims/images/pig.png"",""stims/images/narwhal.png"",""stims/images/bear.png""]",lynx,stims/images/lynx.png,somewhat unfamiliar,pretest,3,stims/audio/wheres_lynx.wav,6,stims/images/narwhal.png,,,,,,,,,,,,
coact-test-prompt,73,318124,0.0-73.0,p003,P003,ap,"[[""active"",""active""],[""passive"",""active""]]","[""all_active"",""passive_caregiver_active_child""]",,,,,,853,,,"[""stims/images/wombat.png"",""stims/images/armadillo.png"",""stims/images/pig.png"",""stims/images/narwhal.png"",""stims/images/lynx.png"",""stims/images/porcupine.png"",""stims/images/dolphin.png"",""stims/images/bear.png""]",pig,stims/images/pig.png,familiar,pretest,3,,,,,,,,,,,,,,,
coact-test,74,327849,0.0-74.0,p003,P003,ap,"[[""active"",""active""],[""passive"",""active""]]","[""all_active"",""passive_caregiver_active_child""]",,,,,,337857.3893,,,"[""stims/images/wombat.png"",""stims/images/armadillo.png"",""stims/images/pig.png"",""stims/images/narwhal.png"",""stims/images/lynx.png"",""stims/images/porcupine.png"",""stims/images/dolphin.png"",""stims/images/bear.png""]",pig,stims/images/pig.png,familiar,pretest,3,stims/audio/find_pig.wav,2,stims/images/pig.png,,,,,,,,,,,,
coact-test-prompt,75,328564,0.0-75.0,p003,P003,ap,"[[""active"",""active""],[""passive"",""active""]]","[""all_active"",""passive_caregiver_active_child""]",,,,,,714,,,"[""stims/images/bear.png"",""stims/images/armadillo.png"",""stims/images/dolphin.png"",""stims/images/narwhal.png"",""stims/images/lynx.png"",""stims/images/pig.png"",""stims/images/porcupine.png"",""stims/images/wombat.png""]",porcupine,stims/images/porcupine.png,somewhat familiar,pretest,3,,,,,,,,,,,,,,,
coact-test,76,332358,0.0-76.0,p003,P003,ap,"[[""active"",""active""],[""passive"",""active""]]","[""all_active"",""passive_caregiver_active_child""]",,,,,,342356.9493,,,"[""stims/images/bear.png"",""stims/images/armadillo.png"",""stims/images/dolphin.png"",""stims/images/narwhal.png"",""stims/images/lynx.png"",""stims/images/pig.png"",""stims/images/porcupine.png"",""stims/images/wombat.png""]",porcupine,stims/images/porcupine.png,somewhat familiar,pretest,3,stims/audio/wheres_porcupine.wav,6,stims/images/porcupine.png,,,,,,,,,,,,
coact-test-prompt,77,333010,0.0-77.0,p003,P003,ap,"[[""active"",""active""],[""passive"",""active""]]","[""all_active"",""passive_caregiver_active_child""]",,,,,,652,,,"[""stims/images/dolphin.png"",""stims/images/bear.png"",""stims/images/narwhal.png"",""stims/images/armadillo.png"",""stims/images/wombat.png"",""stims/images/lynx.png"",""stims/images/pig.png"",""stims/images/porcupine.png""]",dolphin,stims/images/dolphin.png,somewhat familiar,pretest,3,,,,,,,,,,,,,,,
coact-test,78,336869,0.0-78.0,p003,P003,ap,"[[""active"",""active""],[""passive"",""active""]]","[""all_active"",""passive_caregiver_active_child""]",,,,,,346863.504,,,"[""stims/images/dolphin.png"",""stims/images/bear.png"",""stims/images/narwhal.png"",""stims/images/armadillo.png"",""stims/images/wombat.png"",""stims/images/lynx.png"",""stims/images/pig.png"",""stims/images/porcupine.png""]",dolphin,stims/images/dolphin.png,somewhat familiar,pretest,3,stims/audio/find_dolphin.wav,0,stims/images/dolphin.png,,,,,,,,,,,,
coact-test-prompt,79,337647,0.0-79.0,p003,P003,ap,"[[""active"",""active""],[""passive"",""active""]]","[""all_active"",""passive_caregiver_active_child""]",,,,,,777,,,"[""stims/images/narwhal.png"",""stims/images/armadillo.png"",""stims/images/wombat.png"",""stims/images/lynx.png"",""stims/images/pig.png"",""stims/images/dolphin.png"",""stims/images/porcupine.png"",""stims/images/bear.png""]",narwhal,stims/images/narwhal.png,unfamiliar,pretest,3,,,,,,,,,,,,,,,
coact-test,80,342176,0.0-80.0,p003,P003,ap,"[[""active"",""active""],[""passive"",""active""]]","[""all_active"",""passive_caregiver_active_child""]",,,,,,352165.8667,,,"[""stims/images/narwhal.png"",""stims/images/armadillo.png"",""stims/images/wombat.png"",""stims/images/lynx.png"",""stims/images/pig.png"",""stims/images/dolphin.png"",""stims/images/porcupine.png"",""stims/images/bear.png""]",narwhal,stims/images/narwhal.png,unfamiliar,pretest,3,stims/audio/find_narwhal.wav,2,stims/images/wombat.png,,,,,,,,,,,,
coact-test-prompt,81,342606,0.0-81.0,p003,P003,ap,"[[""active"",""active""],[""passive"",""active""]]","[""all_active"",""passive_caregiver_active_child""]",,,,,,429,,,"[""stims/images/lynx.png"",""stims/images/narwhal.png"",""stims/images/porcupine.png"",""stims/images/armadillo.png"",""stims/images/wombat.png"",""stims/images/bear.png"",""stims/images/pig.png"",""stims/images/dolphin.png""]",armadillo,stims/images/armadillo.png,somewhat unfamiliar,pretest,3,,,,,,,,,,,,,,,
coact-test,82,349442,0.0-82.0,p003,P003,ap,"[[""active"",""active""],[""passive"",""active""]]","[""all_active"",""passive_caregiver_active_child""]",,,,,,359426.9067,,,"[""stims/images/lynx.png"",""stims/images/narwhal.png"",""stims/images/porcupine.png"",""stims/images/armadillo.png"",""stims/images/wombat.png"",""stims/images/bear.png"",""stims/images/pig.png"",""stims/images/dolphin.png""]",armadillo,stims/images/armadillo.png,somewhat unfamiliar,pretest,3,stims/audio/wheres_armadillo.wav,4,stims/images/wombat.png,,,,,,,,,,,,
coact-test-prompt,83,349713,0.0-83.0,p003,P003,ap,"[[""active"",""active""],[""passive"",""active""]]","[""all_active"",""passive_caregiver_active_child""]",,,,,,270,,,"[""stims/images/wombat.png"",""stims/images/porcupine.png"",""stims/images/narwhal.png"",""stims/images/dolphin.png"",""stims/images/lynx.png"",""stims/images/pig.png"",""stims/images/armadillo.png"",""stims/images/bear.png""]",wombat,stims/images/wombat.png,unfamiliar,pretest,3,,,,,,,,,,,,,,,
coact-test,84,356392,0.0-84.0,p003,P003,ap,"[[""active"",""active""],[""passive"",""active""]]","[""all_active"",""passive_caregiver_active_child""]",,,,,,366370.8,,,"[""stims/images/wombat.png"",""stims/images/porcupine.png"",""stims/images/narwhal.png"",""stims/images/dolphin.png"",""stims/images/lynx.png"",""stims/images/pig.png"",""stims/images/armadillo.png"",""stims/images/bear.png""]",wombat,stims/images/wombat.png,unfamiliar,pretest,3,stims/audio/wheres_wombat.wav,1,stims/images/porcupine.png,,,,,,,,,,,,
coact-test-prompt,85,357250,0.0-85.0,p003,P003,ap,"[[""active"",""active""],[""passive"",""active""]]","[""all_active"",""passive_caregiver_active_child""]",,,,,,857,,,"[""stims/images/dolphin.png"",""stims/images/bear.png"",""stims/images/narwhal.png"",""stims/images/lynx.png"",""stims/images/porcupine.png"",""stims/images/armadillo.png"",""stims/images/pig.png"",""stims/images/wombat.png""]",bear,stims/images/bear.png,familiar,pretest,3,,,,,,,,,,,,,,,
coact-test,86,361158,0.0-86.0,p003,P003,ap,"[[""active"",""active""],[""passive"",""active""]]","[""all_active"",""passive_caregiver_active_child""]",,,,,,371129.264,,,"[""stims/images/dolphin.png"",""stims/images/bear.png"",""stims/images/narwhal.png"",""stims/images/lynx.png"",""stims/images/porcupine.png"",""stims/images/armadillo.png"",""stims/images/pig.png"",""stims/images/wombat.png""]",bear,stims/images/bear.png,familiar,pretest,3,stims/audio/find_bear.wav,1,stims/images/bear.png,,,,,,,,,,,,
html-button-response,87,361334,0.0-87.0,p003,P003,ap,"[[""active"",""active""],[""passive"",""active""]]","[""all_active"",""passive_caregiver_active_child""]",,,,,,175,,0,,,,,,,,,,,,,,,,,,,,,
coact-grid,88,382810,0.0-88.0,p003,P003,ap,"[[""active"",""active""],[""passive"",""active""]]","[""all_active"",""passive_caregiver_active_child""]",,,,,,20171,,,"[""stims/images/frog.png"",""stims/images/wolf.png"",""stims/images/cow.png"",""stims/images/horse.png"",""stims/images/squirrel.png"",""stims/images/cat.png"",""stims/images/duck.png"",""stims/images/butterfly.png""]",,,,,familiar,,,,"[6,5]","[""stims/images/duck.png"",""stims/images/cat.png""]","[""duck"",""cat""]","[""stims/audio/its_duck.wav"",""stims/audio/its_cat.wav""]",right,"[""stims/images/cat.png"",""stims/images/duck.png""]","[""stims/audio/its_cat.wav"",""stims/audio/its_duck.wav""]","[""cat"",""duck""]",0,,,
coact-grid-choice,89,386388,0.0-89.0,p003,P003,ap,"[[""active"",""active""],[""passive"",""active""]]","[""all_active"",""passive_caregiver_active_child""]",,,,,,3576,,,"[""stims/images/frog.png"",""stims/images/wolf.png"",""stims/images/cow.png"",""stims/images/horse.png"",""stims/images/squirrel.png"",""stims/images/cat.png"",""stims/images/duck.png"",""stims/images/butterfly.png""]",,,,,familiar,,,stims/images/cat.png,,,,,right,"[""stims/images/cat.png"",""stims/images/duck.png""]","[""stims/audio/its_cat.wav"",""stims/audio/its_duck.wav""]","[""cat"",""duck""]",0,1,stims/audio/its_duck.wav,"[""stims/images/duck.png"",""stims/images/cat.png""]"
coact-grid-choice-audio,90,389396,0.0-90.0,p003,P003,ap,"[[""active"",""active""],[""passive"",""active""]]","[""all_active"",""passive_caregiver_active_child""]",,,,,,3000,,,,,,,,familiar,,,stims/images/cat.png,,,,,right,,,,0,,stims/audio/its_duck.wav,
coact-grid,91,393330,0.0-91.0,p003,P003,ap,"[[""active"",""active""],[""passive"",""active""]]","[""all_active"",""passive_caregiver_active_child""]",,,,,,2629,,,"[""stims/images/narwhal.png"",""stims/images/dolphin.png"",""stims/images/armadillo.png"",""stims/images/bear.png"",""stims/images/lynx.png"",""stims/images/porcupine.png"",""stims/images/wombat.png"",""stims/images/pig.png""]",,,,,3,,,,"[1,4]","[""stims/images/dolphin.png"",""stims/images/lynx.png""]","[""dolphin"",""lynx""]","[""stims/audio/thats_dolphin.wav"",""stims/audio/thats_lynx.wav""]",right,"[""stims/images/lynx.png"",""stims/images/dolphin.png""]","[""stims/audio/thats_lynx.wav"",""stims/audio/thats_dolphin.wav""]","[""lynx"",""dolphin""]",0,,,
coact-grid-choice,92,396093,0.0-92.0,p003,P003,ap,"[[""active"",""active""],[""passive"",""active""]]","[""all_active"",""passive_caregiver_active_child""]",,,,,,2761,,,"[""stims/images/narwhal.png"",""stims/images/dolphin.png"",""stims/images/armadillo.png"",""stims/images/bear.png"",""stims/images/lynx.png"",""stims/images/porcupine.png"",""stims/images/wombat.png"",""stims/images/pig.png""]",,,,,3,,,stims/images/lynx.png,,,,,right,"[""stims/images/lynx.png"",""stims/images/dolphin.png""]","[""stims/audio/thats_lynx.wav"",""stims/audio/thats_dolphin.wav""]","[""lynx"",""dolphin""]",0,1,stims/audio/thats_dolphin.wav,"[""stims/images/dolphin.png"",""stims/images/lynx.png""]"
coact-grid-choice-audio,93,399101,0.0-93.0,p003,P003,ap,"[[""active"",""active""],[""passive"",""active""]]","[""all_active"",""passive_caregiver_active_child""]",,,,,,3003,,,,,,,,3,,,stims/images/lynx.png,,,,,right,,,,0,,stims/audio/thats_dolphin.wav,
coact-grid,94,405149,0.0-94.0,p003,P003,ap,"[[""active"",""active""],[""passive"",""active""]]","[""all_active"",""passive_caregiver_active_child""]",,,,,,4742,,,"[""stims/images/armadillo.png"",""stims/images/dolphin.png"",""stims/images/porcupine.png"",""stims/images/narwhal.png"",""stims/images/lynx.png"",""stims/images/pig.png"",""stims/images/bear.png"",""stims/images/wombat.png""]",,,,,3,,,,"[1,5]","[""stims/images/dolphin.png"",""stims/images/pig.png""]","[""dolphin"",""pig""]","[""stims/audio/its_dolphin.wav"",""stims/audio/its_pig.wav""]",left,"[""stims/images/dolphin.png"",""stims/images/pig.png""]","[""stims/audio/its_dolphin.wav"",""stims/audio/its_pig.wav""]","[""dolphin"",""pig""]",1,,,
coact-grid-choice,95,406398,0.0-95.0,p003,P003,ap,"[[""active"",""active""],[""passive"",""active""]]","[""all_active"",""passive_caregiver_active_child""]",,,,,,1249,,,"[""stims/images/armadillo.png"",""stims/images/dolphin.png"",""stims/images/porcupine.png"",""stims/images/narwhal.png"",""stims/images/lynx.png"",""stims/images/pig.png"",""stims/images/bear.png"",""stims/images/wombat.png""]",,,,,3,,,stims/images/pig.png,,,,,left,"[""stims/images/dolphin.png"",""stims/images/pig.png""]","[""stims/audio/its_dolphin.wav"",""stims/audio/its_pig.wav""]","[""dolphin"",""pig""]",1,1,stims/audio/its_pig.wav,"[""stims/images/dolphin.png"",""stims/images/pig.png""]"
coact-grid-choice-audio,96,409406,0.0-96.0,p003,P003,ap,"[[""active"",""active""],[""passive"",""active""]]","[""all_active"",""passive_caregiver_active_child""]",,,,,,3000,,,,,,,,3,,,stims/images/pig.png,,,,,left,,,,1,,stims/audio/its_pig.wav,
coact-grid,97,414596,0.0-97.0,p003,P003,ap,"[[""active"",""active""],[""passive"",""active""]]","[""all_active"",""passive_caregiver_active_child""]",,,,,,3883,,,"[""stims/images/armadillo.png"",""stims/images/bear.png"",""stims/images/wombat.png"",""stims/images/dolphin.png"",""stims/images/lynx.png"",""stims/images/pig.png"",""stims/images/porcupine.png"",""stims/images/narwhal.png""]",,,,,3,,,,"[1,2]","[""stims/images/bear.png"",""stims/images/wombat.png""]","[""bear"",""wombat""]","[""stims/audio/thats_bear.wav"",""stims/audio/thats_wombat.wav""]",left,"[""stims/images/bear.png"",""stims/images/wombat.png""]","[""stims/audio/thats_bear.wav"",""stims/audio/thats_wombat.wav""]","[""bear"",""wombat""]",2,,,
coact-grid-choice,98,419372,0.0-98.0,p003,P003,ap,"[[""active"",""active""],[""passive"",""active""]]","[""all_active"",""passive_caregiver_active_child""]",,,,,,4776,,,"[""stims/images/armadillo.png"",""stims/images/bear.png"",""stims/images/wombat.png"",""stims/images/dolphin.png"",""stims/images/lynx.png"",""stims/images/pig.png"",""stims/images/porcupine.png"",""stims/images/narwhal.png""]",,,,,3,,,stims/images/wombat.png,,,,,left,"[""stims/images/bear.png"",""stims/images/wombat.png""]","[""stims/audio/thats_bear.wav"",""stims/audio/thats_wombat.wav""]","[""bear"",""wombat""]",2,1,stims/audio/thats_wombat.wav,"[""stims/images/bear.png"",""stims/images/wombat.png""]"
coact-grid-choice-audio,99,422380,0.0-99.0,p003,P003,ap,"[[""active"",""active""],[""passive"",""active""]]","[""all_active"",""passive_caregiver_active_child""]",,,,,,3000,,,,,,,,3,,,stims/images/wombat.png,,,,,left,,,,2,,stims/audio/thats_wombat.wav,
coact-grid,100,426109,0.0-100.0,p003,P003,ap,"[[""active"",""active""],[""passive"",""active""]]","[""all_active"",""passive_caregiver_active_child""]",,,,,,2423,,,"[""stims/images/narwhal.png"",""stims/images/bear.png"",""stims/images/armadillo.png"",""stims/images/wombat.png"",""stims/images/lynx.png"",""stims/images/porcupine.png"",""stims/images/pig.png"",""stims/images/dolphin.png""]",,,,,3,,,,"[6,7]","[""stims/images/pig.png"",""stims/images/dolphin.png""]","[""pig"",""dolphin""]","[""stims/audio/its_pig.wav"",""stims/audio/its_dolphin.wav""]",right,"[""stims/images/dolphin.png"",""stims/images/pig.png""]","[""stims/audio/its_dolphin.wav"",""stims/audio/its_pig.wav""]","[""dolphin"",""pig""]",3,,,
coact-grid-choice,101,429345,0.0-101.0,p003,P003,ap,"[[""active"",""active""],[""passive"",""active""]]","[""all_active"",""passive_caregiver_active_child""]",,,,,,3236,,,"[""stims/images/narwhal.png"",""stims/images/bear.png"",""stims/images/armadillo.png"",""stims/images/wombat.png"",""stims/images/lynx.png"",""stims/images/porcupine.png"",""stims/images/pig.png"",""stims/images/dolphin.png""]",,,,,3,,,stims/images/dolphin.png,,,,,right,"[""stims/images/dolphin.png"",""stims/images/pig.png""]","[""stims/audio/its_dolphin.wav"",""stims/audio/its_pig.wav""]","[""dolphin"",""pig""]",3,1,stims/audio/its_pig.wav,"[""stims/images/pig.png"",""stims/images/dolphin.png""]"
coact-grid-choice-audio,102,432354,0.0-102.0,p003,P003,ap,"[[""active"",""active""],[""passive"",""active""]]","[""all_active"",""passive_caregiver_active_child""]",,,,,,3000,,,,,,,,3,,,stims/images/dolphin.png,,,,,right,,,,3,,stims/audio/its_pig.wav,
coact-grid,103,439285,0.0-103.0,p003,P003,ap,"[[""active"",""active""],[""passive"",""active""]]","[""all_active"",""passive_caregiver_active_child""]",,,,,,5626,,,"[""stims/images/lynx.png"",""stims/images/dolphin.png"",""stims/images/narwhal.png"",""stims/images/wombat.png"",""stims/images/bear.png"",""stims/images/pig.png"",""stims/images/armadillo.png"",""stims/images/porcupine.png""]",,,,,3,,,,"[7,6]","[""stims/images/porcupine.png"",""stims/images/armadillo.png""]","[""porcupine"",""armadillo""]","[""stims/audio/thats_porcupine.wav"",""stims/audio/thats_armadillo.wav""]",left,"[""stims/images/porcupine.png"",""stims/images/armadillo.png""]","[""stims/audio/thats_porcupine.wav"",""stims/audio/thats_armadillo.wav""]","[""porcupine"",""armadillo""]",4,,,
coact-grid-choice,104,442652,0.0-104.0,p003,P003,ap,"[[""active"",""active""],[""passive"",""active""]]","[""all_active"",""passive_caregiver_active_child""]",,,,,,3367,,,"[""stims/images/lynx.png"",""stims/images/dolphin.png"",""stims/images/narwhal.png"",""stims/images/wombat.png"",""stims/images/bear.png"",""stims/images/pig.png"",""stims/images/armadillo.png"",""stims/images/porcupine.png""]",,,,,3,,,stims/images/armadillo.png,,,,,left,"[""stims/images/porcupine.png"",""stims/images/armadillo.png""]","[""stims/audio/thats_porcupine.wav"",""stims/audio/thats_armadillo.wav""]","[""porcupine"",""armadillo""]",4,1,stims/audio/thats_armadillo.wav,"[""stims/images/porcupine.png"",""stims/images/armadillo.png""]"
coact-grid-choice-audio,105,445660,0.0-105.0,p003,P003,ap,"[[""active"",""active""],[""passive"",""active""]]","[""all_active"",""passive_caregiver_active_child""]",,,,,,3000,,,,,,,,3,,,stims/images/armadillo.png,,,,,left,,,,4,,stims/audio/thats_armadillo.wav,
coact-grid,106,451557,0.0-106.0,p003,P003,ap,"[[""active"",""active""],[""passive"",""active""]]","[""all_active"",""passive_caregiver_active_child""]",,,,,,4591,,,"[""stims/images/dolphin.png"",""stims/images/pig.png"",""stims/images/narwhal.png"",""stims/images/porcupine.png"",""stims/images/armadillo.png"",""stims/images/lynx.png"",""stims/images/bear.png"",""stims/images/wombat.png""]",,,,,3,,,,"[7,3]","[""stims/images/wombat.png"",""stims/images/porcupine.png""]","[""wombat"",""porcupine""]","[""stims/audio/its_wombat.wav"",""stims/audio/its_porcupine.wav""]",right,"[""stims/images/porcupine.png"",""stims/images/wombat.png""]","[""stims/audio/its_porcupine.wav"",""stims/audio/its_wombat.wav""]","[""porcupine"",""wombat""]",5,,,
coact-grid-choice,107,456328,0.0-107.0,p003,P003,ap,"[[""active"",""active""],[""passive"",""active""]]","[""all_active"",""passive_caregiver_active_child""]",,,,,,4771,,,"[""stims/images/dolphin.png"",""stims/images/pig.png"",""stims/images/narwhal.png"",""stims/images/porcupine.png"",""stims/images/armadillo.png"",""stims/images/lynx.png"",""stims/images/bear.png"",""stims/images/wombat.png""]",,,,,3,,,stims/images/porcupine.png,,,,,right,"[""stims/images/porcupine.png"",""stims/images/wombat.png""]","[""stims/audio/its_porcupine.wav"",""stims/audio/its_wombat.wav""]","[""porcupine"",""wombat""]",5,1,stims/audio/its_wombat.wav,"[""stims/images/wombat.png"",""stims/images/porcupine.png""]"
coact-grid-choice-audio,108,459336,0.0-108.0,p003,P003,ap,"[[""active"",""active""],[""passive"",""active""]]","[""all_active"",""passive_caregiver_active_child""]",,,,,,3000,,,,,,,,3,,,stims/images/porcupine.png,,,,,right,,,,5,,stims/audio/its_wombat.wav,
html-button-response,109,471375,0.0-109.0,p003,P003,ap,"[[""active"",""active""],[""passive"",""active""]]","[""all_active"",""passive_caregiver_active_child""]",,,,,,12038,,0,,,,,,,,,,,,,,,,,,,,,
coact-test-prompt,110,473339,0.0-110.0,p003,P003,ap,"[[""active"",""active""],[""passive"",""active""]]","[""all_active"",""passive_caregiver_active_child""]",,,,,,1964,,,"[""stims/images/frog.png"",""stims/images/duck.png"",""stims/images/squirrel.png"",""stims/images/wolf.png"",""stims/images/cow.png"",""stims/images/cat.png"",""stims/images/butterfly.png"",""stims/images/horse.png""]",duck,stims/images/duck.png,familiar,practice_posttest,familiar,,,,,,,,,,,,,,,
coact-test,111,476538,0.0-111.0,p003,P003,ap,"[[""active"",""active""],[""passive"",""active""]]","[""all_active"",""passive_caregiver_active_child""]",,,,,,486400.1733,,,"[""stims/images/frog.png"",""stims/images/duck.png"",""stims/images/squirrel.png"",""stims/images/wolf.png"",""stims/images/cow.png"",""stims/images/cat.png"",""stims/images/butterfly.png"",""stims/images/horse.png""]",duck,stims/images/duck.png,familiar,practice_posttest,familiar,stims/audio/find_duck.wav,1,stims/images/duck.png,,,,,,,,,,,,
coact-test-prompt,112,477767,0.0-112.0,p003,P003,ap,"[[""active"",""active""],[""passive"",""active""]]","[""all_active"",""passive_caregiver_active_child""]",,,,,,1228,,,"[""stims/images/cat.png"",""stims/images/squirrel.png"",""stims/images/duck.png"",""stims/images/butterfly.png"",""stims/images/wolf.png"",""stims/images/frog.png"",""stims/images/cow.png"",""stims/images/horse.png""]",cat,stims/images/cat.png,familiar,practice_posttest,familiar,,,,,,,,,,,,,,,
coact-test,113,483048,0.0-113.0,p003,P003,ap,"[[""active"",""active""],[""passive"",""active""]]","[""all_active"",""passive_caregiver_active_child""]",,,,,,492905.744,,,"[""stims/images/cat.png"",""stims/images/squirrel.png"",""stims/images/duck.png"",""stims/images/butterfly.png"",""stims/images/wolf.png"",""stims/images/frog.png"",""stims/images/cow.png"",""stims/images/horse.png""]",cat,stims/images/cat.png,familiar,practice_posttest,familiar,stims/audio/wheres_cat.wav,5,stims/images/frog.png,,,,,,,,,,,,
coact-test-prompt,114,486006,0.0-114.0,p003,P003,ap,"[[""active"",""active""],[""passive"",""active""]]","[""all_active"",""passive_caregiver_active_child""]",,,,,,2958,,,"[""stims/images/narwhal.png"",""stims/images/porcupine.png"",""stims/images/bear.png"",""stims/images/pig.png"",""stims/images/dolphin.png"",""stims/images/armadillo.png"",""stims/images/wombat.png"",""stims/images/lynx.png""]",pig,stims/images/pig.png,familiar,posttest,3,,,,,,,,,,,,,,,
coact-test,115,489730,0.0-115.0,p003,P003,ap,"[[""active"",""active""],[""passive"",""active""]]","[""all_active"",""passive_caregiver_active_child""]",,,,,,499581.5067,,,"[""stims/images/narwhal.png"",""stims/images/porcupine.png"",""stims/images/bear.png"",""stims/images/pig.png"",""stims/images/dolphin.png"",""stims/images/armadillo.png"",""stims/images/wombat.png"",""stims/images/lynx.png""]",pig,stims/images/pig.png,familiar,posttest,3,stims/audio/wheres_pig.wav,3,stims/images/pig.png,,,,,,,,,,,,
coact-test-prompt,116,491168,0.0-116.0,p003,P003,ap,"[[""active"",""active""],[""passive"",""active""]]","[""all_active"",""passive_caregiver_active_child""]",,,,,,1437,,,"[""stims/images/wombat.png"",""stims/images/lynx.png"",""stims/images/bear.png"",""stims/images/narwhal.png"",""stims/images/porcupine.png"",""stims/images/dolphin.png"",""stims/images/armadillo.png"",""stims/images/pig.png""]",armadillo,stims/images/armadillo.png,somewhat unfamiliar,posttest,3,,,,,,,,,,,,,,,
coact-test,117,498938,0.0-117.0,p003,P003,ap,"[[""active"",""active""],[""passive"",""active""]]","[""all_active"",""passive_caregiver_active_child""]",,,,,,508784.344,,,"[""stims/images/wombat.png"",""stims/images/lynx.png"",""stims/images/bear.png"",""stims/images/narwhal.png"",""stims/images/porcupine.png"",""stims/images/dolphin.png"",""stims/images/armadillo.png"",""stims/images/pig.png""]",armadillo,stims/images/armadillo.png,somewhat unfamiliar,posttest,3,stims/audio/wheres_armadillo.wav,3,stims/images/narwhal.png,,,,,,,,,,,,
coact-test-prompt,118,500288,0.0-118.0,p003,P003,ap,"[[""active"",""active""],[""passive"",""active""]]","[""all_active"",""passive_caregiver_active_child""]",,,,,,1348,,,"[""stims/images/lynx.png"",""stims/images/bear.png"",""stims/images/pig.png"",""stims/images/armadillo.png"",""stims/images/narwhal.png"",""stims/images/dolphin.png"",""stims/images/porcupine.png"",""stims/images/wombat.png""]",wombat,stims/images/wombat.png,unfamiliar,posttest,3,,,,,,,,,,,,,,,
coact-test,119,504239,0.0-119.0,p003,P003,ap,"[[""active"",""active""],[""passive"",""active""]]","[""all_active"",""passive_caregiver_active_child""]",,,,,,514077.224,,,"[""stims/images/lynx.png"",""stims/images/bear.png"",""stims/images/pig.png"",""stims/images/armadillo.png"",""stims/images/narwhal.png"",""stims/images/dolphin.png"",""stims/images/porcupine.png"",""stims/images/wombat.png""]",wombat,stims/images/wombat.png,unfamiliar,posttest,3,stims/audio/find_wombat.wav,3,stims/images/armadillo.png,,,,,,,,,,,,
coact-test-prompt,120,505582,0.0-120.0,p003,P003,ap,"[[""active"",""active""],[""passive"",""active""]]","[""all_active"",""passive_caregiver_active_child""]",,,,,,1342,,,"[""stims/images/porcupine.png"",""stims/images/lynx.png"",""stims/images/dolphin.png"",""stims/images/narwhal.png"",""stims/images/pig.png"",""stims/images/bear.png"",""stims/images/wombat.png"",""stims/images/armadillo.png""]",porcupine,stims/images/porcupine.png,somewhat familiar,posttest,3,,,,,,,,,,,,,,,
coact-test,121,509244,0.0-121.0,p003,P003,ap,"[[""active"",""active""],[""passive"",""active""]]","[""all_active"",""passive_caregiver_active_child""]",,,,,,519075.928,,,"[""stims/images/porcupine.png"",""stims/images/lynx.png"",""stims/images/dolphin.png"",""stims/images/narwhal.png"",""stims/images/pig.png"",""stims/images/bear.png"",""stims/images/wombat.png"",""stims/images/armadillo.png""]",porcupine,stims/images/porcupine.png,somewhat familiar,posttest,3,stims/audio/find_porcupine.wav,0,stims/images/porcupine.png,,,,,,,,,,,,
coact-test-prompt,122,509587,0.0-122.0,p003,P003,ap,"[[""active"",""active""],[""passive"",""active""]]","[""all_active"",""passive_caregiver_active_child""]",,,,,,342,,,"[""stims/images/bear.png"",""stims/images/lynx.png"",""stims/images/narwhal.png"",""stims/images/armadillo.png"",""stims/images/dolphin.png"",""stims/images/wombat.png"",""stims/images/pig.png"",""stims/images/porcupine.png""]",bear,stims/images/bear.png,familiar,posttest,3,,,,,,,,,,,,,,,
coact-test,123,514847,0.0-123.0,p003,P003,ap,"[[""active"",""active""],[""passive"",""active""]]","[""all_active"",""passive_caregiver_active_child""]",,,,,,524675.9253,,,"[""stims/images/bear.png"",""stims/images/lynx.png"",""stims/images/narwhal.png"",""stims/images/armadillo.png"",""stims/images/dolphin.png"",""stims/images/wombat.png"",""stims/images/pig.png"",""stims/images/porcupine.png""]",bear,stims/images/bear.png,familiar,posttest,3,stims/audio/find_bear.wav,0,stims/images/bear.png,,,,,,,,,,,,
coact-test-prompt,124,515588,0.0-124.0,p003,P003,ap,"[[""active"",""active""],[""passive"",""active""]]","[""all_active"",""passive_caregiver_active_child""]",,,,,,739,,,"[""stims/images/dolphin.png"",""stims/images/pig.png"",""stims/images/lynx.png"",""stims/images/narwhal.png"",""stims/images/porcupine.png"",""stims/images/bear.png"",""stims/images/armadillo.png"",""stims/images/wombat.png""]",dolphin,stims/images/dolphin.png,somewhat familiar,posttest,3,,,,,,,,,,,,,,,
coact-test,125,522734,0.0-125.0,p003,P003,ap,"[[""active"",""active""],[""passive"",""active""]]","[""all_active"",""passive_caregiver_active_child""]",,,,,,532556.9253,,,"[""stims/images/dolphin.png"",""stims/images/pig.png"",""stims/images/lynx.png"",""stims/images/narwhal.png"",""stims/images/porcupine.png"",""stims/images/bear.png"",""stims/images/armadillo.png"",""stims/images/wombat.png""]",dolphin,stims/images/dolphin.png,somewhat familiar,posttest,3,stims/audio/wheres_dolphin.wav,0,stims/images/dolphin.png,,,,,,,,,,,,
coact-test-prompt,126,524028,0.0-126.0,p003,P003,ap,"[[""active"",""active""],[""passive"",""active""]]","[""all_active"",""passive_caregiver_active_child""]",,,,,,1293,,,"[""stims/images/porcupine.png"",""stims/images/dolphin.png"",""stims/images/pig.png"",""stims/images/lynx.png"",""stims/images/bear.png"",""stims/images/armadillo.png"",""stims/images/wombat.png"",""stims/images/narwhal.png""]",narwhal,stims/images/narwhal.png,unfamiliar,posttest,3,,,,,,,,,,,,,,,
coact-test,127,528887,0.0-127.0,p003,P003,ap,"[[""active"",""active""],[""passive"",""active""]]","[""all_active"",""passive_caregiver_active_child""]",,,,,,538701.4827,,,"[""stims/images/porcupine.png"",""stims/images/dolphin.png"",""stims/images/pig.png"",""stims/images/lynx.png"",""stims/images/bear.png"",""stims/images/armadillo.png"",""stims/images/wombat.png"",""stims/images/narwhal.png""]",narwhal,stims/images/narwhal.png,unfamiliar,posttest,3,stims/audio/wheres_narwhal.wav,7,stims/images/narwhal.png,,,,,,,,,,,,
coact-test-prompt,128,530399,0.0-128.0,p003,P003,ap,"[[""active"",""active""],[""passive"",""active""]]","[""all_active"",""passive_caregiver_active_child""]",,,,,,1511,,,"[""stims/images/wombat.png"",""stims/images/armadillo.png"",""stims/images/pig.png"",""stims/images/porcupine.png"",""stims/images/lynx.png"",""stims/images/narwhal.png"",""stims/images/bear.png"",""stims/images/dolphin.png""]",lynx,stims/images/lynx.png,somewhat unfamiliar,posttest,3,,,,,,,,,,,,,,,
coact-test,129,534568,0.0-129.0,p003,P003,ap,"[[""active"",""active""],[""passive"",""active""]]","[""all_active"",""passive_caregiver_active_child""]",,,,,,544377.112,,,"[""stims/images/wombat.png"",""stims/images/armadillo.png"",""stims/images/pig.png"",""stims/images/porcupine.png"",""stims/images/lynx.png"",""stims/images/narwhal.png"",""stims/images/bear.png"",""stims/images/dolphin.png""]",lynx,stims/images/lynx.png,somewhat unfamiliar,posttest,3,stims/audio/find_lynx.wav,5,stims/images/narwhal.png,,,,,,,,,,,,