trial_type,trial_index,time_elapsed,internal_node_id,subject_id,round_name,round_index,success,timeout,failed_images,failed_audio,failed_video,rt,stimulus,response,images,target,target_word,target_image,target_type,round_type,set,test_audio,choice,chosen_image,correct,correct_helper,choices,chosen_images,chosen_items,chosen_audio_items,first_choice_location,chosen_images_in_order,chosen_audio_in_order,chosen_items_in_order,condition,sample_num,chosen_index,chosen_audio,central_images,seed,condition_index,condition_order,condition_vector,condition_name,fam_stims,round_stims,fam_test_index,subject,cur_target,cur_target_image,cur_target_type,familiar_classification,image,source,editing_needed,good_pic,aoa,AoAtestbased,use.,notes,version1,X,X.1,X.2,aoa_adj,chosen_word,familiar_classification_grid,image_grid,source_grid,editing_needed_grid,good_pic_grid,aoa_grid,AoAtestbased_grid,use._grid,notes_grid,version1_grid,X_grid,X.1_grid,X.2_grid,aoa_adj_grid
coact-test,4,22073,0.0-4.0,p004,1,0,NA,NA,NA,NA,NA,245111.85066666667,NA,NA,"[""stims/images/cow.png"",""stims/images/horse.png"",""stims/images/cat.png"",""stims/images/frog.png"",""stims/images/duck.png"",""stims/images/wolf.png"",""stims/images/butterfly.png"",""stims/images/squirrel.png""]",wolf,wolf,NA,familiar,practice_pretest,familiar,stims/audio/wheres_wolf.wav,5,stims/images/wolf.png,1,NA,NA,NA,NA,NA,NA,NA,NA,NA,NA,NA,NA,NA,NA,NA,NA,NA,NA,NA,NA,NA,NA,NA,NA,NA,NA,familiar,wolf.png,BOSS,n,,4.5,2,,,fam,NA,NA,,4.5,NA,NA,NA,NA,NA,NA,NA,NA,NA,NA,NA,NA,NA,NA,NA
coact-test,6,28351,0.0-6.0,p004,1,0,NA,NA,NA,NA,NA,251385.112,NA,NA,"[""stims/images/duck.png"",""stims/images/squirrel.png"",""stims/images/cow.png"",""stims/images/horse.png"",""stims/images/wolf.png"",""stims/images/frog.png"",""stims/images/cat.png"",""stims/images/butterfly.png""]",squirrel,squirrel,NA,familiar,practice_pretest,familiar,stims/audio/find_squirrel.wav,1,stims/images/squirrel.png,1,NA,NA,NA,NA,NA,NA,NA,NA,NA,NA,NA,NA,NA,NA,NA,NA,NA,NA,NA,NA,NA,NA,NA,NA,NA,NA,familiar,squirrel.png,BOSS,n,,4.44,2,N,not a great picture,fam,NA,NA,,4.44,NA,NA,NA,NA,NA,NA,NA,NA,NA,NA,NA,NA,NA,NA,NA
coact-test,8,33578,0.0-8.0,p004,1,0,NA,NA,NA,NA,NA,256606.23466666669,NA,NA,"[""stims/images/zebra.png"",""stims/images/porcupine.png"",""stims/images/lynx.png"",""stims/images/elephant.png"",""stims/images/flamingo.png"",""stims/images/cormorant.png"",""stims/images/nyala.png"",""stims/images/chameleon.png""]",zebra,zebra,NA,familiar,pretest,1,stims/audio/wheres_zebra.wav,0,stims/images/zebra.png,1,NA,NA,NA,NA,NA,NA,NA,NA,NA,NA,NA,NA,NA,NA,NA,NA,NA,NA,NA,NA,NA,NA,NA,NA,NA,NA,familiar,zebra.png,BOSS,n,,4.79,2,,,y,NA,NA,,4.79,NA,NA,NA,NA,NA,NA,NA,NA,NA,NA,NA,NA,NA,NA,NA
coact-test,10,38588,0.0-10.0,p004,1,0,NA,NA,NA,NA,NA,261611.13333333336,NA,NA,"[""stims/images/chameleon.png"",""stims/images/zebra.png"",""stims/images/lynx.png"",""stims/images/elephant.png"",""stims/images/porcupine.png"",""stims/images/cormorant.png"",""stims/images/flamingo.png"",""stims/images/nyala.png""]",porcupine,porcupine,NA,somewhat familiar,pretest,1,stims/audio/find_porcupine.wav,4,stims/images/porcupine.png,1,NA,NA,NA,NA,NA,NA,NA,NA,NA,NA,NA,NA,NA,NA,NA,NA,NA,NA,NA,NA,NA,NA,NA,NA,NA,NA,somewhat_familiar,porcupine.png,BOSS,n,,6.89,6,,,y,NA,NA,,6.89,NA,NA,NA,NA,NA,NA,NA,NA,NA,NA,NA,NA,NA,NA,NA
coact-test,12,41624,0.0-12.0,p004,1,0,NA,NA,NA,NA,NA,264644.576,NA,NA,"[""stims/images/nyala.png"",""stims/images/cormorant.png"",""stims/images/elephant.png"",""stims/images/zebra.png"",""stims/images/lynx.png"",""stims/images/porcupine.png"",""stims/images/flamingo.png"",""stims/images/chameleon.png""]",chameleon,chameleon,NA,somewhat unfamiliar,pretest,1,stims/audio/find_chameleon.wav,7,stims/images/chameleon.png,1,NA,NA,NA,NA,NA,NA,NA,NA,NA,NA,NA,NA,NA,NA,NA,NA,NA,NA,NA,NA,NA,NA,NA,NA,NA,NA,somewhat_unfamiliar,chameleon.png,BOSS,n,,10.18,12,,,y,NA,NA,,10.18,NA,NA,NA,NA,NA,NA,NA,NA,NA,NA,NA,NA,NA,NA,NA
coact-test,14,50170,0.0-14.0,p004,1,0,NA,NA,NA,NA,NA,273187.112,NA,NA,"[""stims/images/flamingo.png"",""stims/images/nyala.png"",""stims/images/chameleon.png"",""stims/images/porcupine.png"",""stims/images/zebra.png"",""stims/images/elephant.png"",""stims/images/cormorant.png"",""stims/images/lynx.png""]",cormorant,cormorant,NA,unfamiliar,pretest,1,stims/audio/wheres_cormorant.wav,7,stims/images/lynx.png,0,NA,NA,NA,NA,NA,NA,NA,NA,NA,NA,NA,NA,NA,NA,NA,NA,NA,NA,NA,NA,NA,NA,NA,NA,NA,NA,unfamiliar,cormorant.png,BOSS,n,,14.22,13,,,y,NA,NA,,14.22,NA,NA,NA,NA,NA,NA,NA,NA,NA,NA,NA,NA,NA,NA,NA
coact-test,16,54542,0.0-16.0,p004,1,0,NA,NA,NA,NA,NA,277549.72266666667,NA,NA,"[""stims/images/porcupine.png"",""stims/images/lynx.png"",""stims/images/cormorant.png"",""stims/images/elephant.png"",""stims/images/chameleon.png"",""stims/images/zebra.png"",""stims/images/nyala.png"",""stims/images/flamingo.png""]",elephant,elephant,NA,familiar,pretest,1,stims/audio/wheres_elephant.wav,3,stims/images/elephant.png,1,NA,NA,NA,NA,NA,NA,NA,NA,NA,NA,NA,NA,NA,NA,NA,NA,NA,NA,NA,NA,NA,NA,NA,NA,NA,NA,familiar,elephant.png,BOSS,n,,4.8,2,,,y,NA,NA,,4.8,NA,NA,NA,NA,NA,NA,NA,NA,NA,NA,NA,NA,NA,NA,NA
coact-test,18,59618,0.0-18.0,p004,1,0,NA,NA,NA,NA,NA,282621.82666666666,NA,NA,"[""stims/images/flamingo.png"",""stims/images/chameleon.png"",""stims/images/lynx.png"",""stims/images/elephant.png"",""stims/images/zebra.png"",""stims/images/porcupine.png"",""stims/images/nyala.png"",""stims/images/cormorant.png""]",lynx,lynx,NA,somewhat unfamiliar,pretest,1,stims/audio/find_lynx.wav,2,stims/images/lynx.png,1,NA,NA,NA,NA,NA,NA,NA,NA,NA,NA,NA,NA,NA,NA,NA,NA,NA,NA,NA,NA,NA,NA,NA,NA,NA,NA,unfamiliar,lynx.png,BOSS,n,,10.53,13,,,y,NA,NA,,10.53,NA,NA,NA,NA,NA,NA,NA,NA,NA,NA,NA,NA,NA,NA,NA
coact-test,20,67462,0.0-20.0,p004,1,0,NA,NA,NA,NA,NA,290461.36,NA,NA,"[""stims/images/flamingo.png"",""stims/images/nyala.png"",""stims/images/elephant.png"",""stims/images/porcupine.png"",""stims/images/lynx.png"",""stims/images/chameleon.png"",""stims/images/zebra.png"",""stims/images/cormorant.png""]",nyala,nyala,NA,unfamiliar,pretest,1,stims/audio/wheres_nyala.wav,7,stims/images/cormorant.png,0,NA,NA,NA,NA,NA,NA,NA,NA,NA,NA,NA,NA,NA,NA,NA,NA,NA,NA,NA,NA,NA,NA,NA,NA,NA,NA,unfamiliar,nyala.png,BOSS,n,,NA,NA,,,y,NA,NA,,14.22,NA,NA,NA,NA,NA,NA,NA,NA,NA,NA,NA,NA,NA,NA,NA
coact-test,22,71256,0.0-22.0,p004,1,0,NA,NA,NA,NA,NA,294249.69066666666,NA,NA,"[""stims/images/nyala.png"",""stims/images/cormorant.png"",""stims/images/chameleon.png"",""stims/images/porcupine.png"",""stims/images/elephant.png"",""stims/images/lynx.png"",""stims/images/flamingo.png"",""stims/images/zebra.png""]",flamingo,flamingo,NA,somewhat familiar,pretest,1,stims/audio/find_flamingo.wav,6,stims/images/flamingo.png,1,NA,NA,NA,NA,NA,NA,NA,NA,NA,NA,NA,NA,NA,NA,NA,NA,NA,NA,NA,NA,NA,NA,NA,NA,NA,NA,somewhat_familiar,flamingo.png,BOSS,n,,6.32,6,,,y,NA,NA,,6.32,NA,NA,NA,NA,NA,NA,NA,NA,NA,NA,NA,NA,NA,NA,NA
coact-grid,24,112138,0.0-24.0,p004,1,0,NA,NA,NA,NA,NA,6780,NA,NA,"[""stims/images/frog.png"",""stims/images/horse.png"",""stims/images/duck.png"",""stims/images/squirrel.png"",""stims/images/cow.png"",""stims/images/wolf.png"",""stims/images/butterfly.png"",""stims/images/cat.png""]",NA,NA,NA,NA,NA,familiar,NA,NA,NA,NA,NA,"[6,2]","[""stims/images/butterfly.png"",""stims/images/duck.png""]","[""butterfly"",""duck""]","[""stims/audio/thats_butterfly.wav"",""stims/audio/thats_duck.wav""]",left,"[""stims/images/butterfly.png"",""stims/images/duck.png""]","[""stims/audio/thats_butterfly.wav"",""stims/audio/thats_duck.wav""]","[""butterfly"",""duck""]",active,0,NA,NA,NA,NA,NA,NA,NA,NA,NA,NA,NA,NA,NA,NA,NA,NA,NA,NA,NA,NA,NA,NA,NA,NA,NA,NA,NA,NA,NA,NA,NA,NA,NA,NA,NA,NA,NA,NA,NA,NA,NA,NA,NA,NA
coact-grid-choice,25,116770,0.0-25.0,p004,1,0,NA,NA,NA,NA,NA,4630,NA,NA,"[""stims/images/frog.png"",""stims/images/horse.png"",""stims/images/duck.png"",""stims/images/squirrel.png"",""stims/images/cow.png"",""stims/images/wolf.png"",""stims/images/butterfly.png"",""stims/images/cat.png""]",NA,NA,NA,NA,NA,familiar,NA,NA,stims/images/duck.png,NA,NA,NA,NA,NA,NA,left,"[""stims/images/butterfly.png"",""stims/images/duck.png""]","[""stims/audio/thats_butterfly.wav"",""stims/audio/thats_duck.wav""]","[""butterfly"",""duck""]",active,0,1,stims/audio/thats_duck.wav,"[""stims/images/butterfly.png"",""stims/images/duck.png""]",NA,NA,NA,NA,NA,NA,NA,NA,NA,NA,NA,NA,NA,NA,NA,NA,NA,NA,NA,NA,NA,NA,NA,NA,NA,NA,duck,familiar,duck.png,MEM,n,,3.5,2,,,fam,NA,8,familiar_exp,3.5
coact-grid-choice-audio,26,119782,0.0-26.0,p004,1,0,NA,NA,NA,NA,NA,3003,NA,NA,"[""stims/images/frog.png"",""stims/images/horse.png"",""stims/images/duck.png"",""stims/images/squirrel.png"",""stims/images/cow.png"",""stims/images/wolf.png"",""stims/images/butterfly.png"",""stims/images/cat.png""]",NA,NA,NA,NA,NA,familiar,NA,NA,stims/images/duck.png,NA,NA,NA,NA,NA,NA,left,NA,NA,NA,active,0,NA,stims/audio/thats_duck.wav,"[""stims/images/butterfly.png"",""stims/images/duck.png""]",NA,NA,NA,NA,NA,NA,NA,NA,NA,NA,NA,NA,NA,NA,NA,NA,NA,NA,NA,NA,NA,NA,NA,NA,NA,NA,duck,familiar,duck.png,MEM,n,,3.5,2,,,fam,NA,8,familiar_exp,3.5
coact-grid,27,125846,0.0-27.0,p004,1,0,NA,NA,NA,NA,NA,4756,NA,NA,"[""stims/images/zebra.png"",""stims/images/elephant.png"",""stims/images/chameleon.png"",""stims/images/nyala.png"",""stims/images/lynx.png"",""stims/images/flamingo.png"",""stims/images/cormorant.png"",""stims/images/porcupine.png""]",NA,NA,NA,NA,NA,1,NA,NA,NA,NA,NA,"[7,4]","[""stims/images/porcupine.png"",""stims/images/lynx.png""]","[""porcupine"",""lynx""]","[""stims/audio/thats_porcupine.wav"",""stims/audio/thats_lynx.wav""]",left,"[""stims/images/porcupine.png"",""stims/images/lynx.png""]","[""stims/audio/thats_porcupine.wav"",""stims/audio/thats_lynx.wav""]","[""porcupine"",""lynx""]",active,0,NA,NA,NA,NA,NA,NA,NA,NA,NA,NA,NA,NA,NA,NA,NA,NA,NA,NA,NA,NA,NA,NA,NA,NA,NA,NA,NA,NA,NA,NA,NA,NA,NA,NA,NA,NA,NA,NA,NA,NA,NA,NA,NA,NA
coact-grid-choice,28,128560,0.0-28.0,p004,1,0,NA,NA,NA,NA,NA,2712.999999999942,NA,NA,"[""stims/images/zebra.png"",""stims/images/elephant.png"",""stims/images/chameleon.png"",""stims/images/nyala.png"",""stims/images/lynx.png"",""stims/images/flamingo.png"",""stims/images/cormorant.png"",""stims/images/porcupine.png""]",NA,NA,NA,NA,NA,1,NA,NA,stims/images/porcupine.png,NA,NA,NA,NA,NA,NA,left,"[""stims/images/porcupine.png"",""stims/images/lynx.png""]","[""stims/audio/thats_porcupine.wav"",""stims/audio/thats_lynx.wav""]","[""porcupine"",""lynx""]",active,0,0,stims/audio/thats_porcupine.wav,"[""stims/images/porcupine.png"",""stims/images/lynx.png""]",NA,NA,NA,NA,NA,NA,NA,NA,NA,NA,NA,NA,NA,NA,NA,NA,NA,NA,NA,NA,NA,NA,NA,NA,NA,NA,porcupine,somewhat_familiar,porcupine.png,BOSS,n,,6.89,6,,,y,NA,NA,,6.89
coact-grid-choice-audio,29,131568,0.0-29.0,p004,1,0,NA,NA,NA,NA,NA,3000,NA,NA,"[""stims/images/zebra.png"",""stims/images/elephant.png"",""stims/images/chameleon.png"",""stims/images/nyala.png"",""stims/images/lynx.png"",""stims/images/flamingo.png"",""stims/images/cormorant.png"",""stims/images/porcupine.png""]",NA,NA,NA,NA,NA,1,NA,NA,stims/images/porcupine.png,NA,NA,NA,NA,NA,NA,left,NA,NA,NA,active,0,NA,stims/audio/thats_porcupine.wav,"[""stims/images/porcupine.png"",""stims/images/lynx.png""]",NA,NA,NA,NA,NA,NA,NA,NA,NA,NA,NA,NA,NA,NA,NA,NA,NA,NA,NA,NA,NA,NA,NA,NA,NA,NA,porcupine,somewhat_familiar,porcupine.png,BOSS,n,,6.89,6,,,y,NA,NA,,6.89
coact-grid,30,139636,0.0-30.0,p004,1,0,NA,NA,NA,NA,NA,6761,NA,NA,"[""stims/images/cormorant.png"",""stims/images/elephant.png"",""stims/images/lynx.png"",""stims/images/zebra.png"",""stims/images/chameleon.png"",""stims/images/porcupine.png"",""stims/images/flamingo.png"",""stims/images/nyala.png""]",NA,NA,NA,NA,NA,1,NA,NA,NA,NA,NA,"[7,0]","[""stims/images/nyala.png"",""stims/images/cormorant.png""]","[""nyala"",""cormorant""]","[""stims/audio/thats_nyala.wav"",""stims/audio/thats_cormorant.wav""]",right,"[""stims/images/cormorant.png"",""stims/images/nyala.png""]","[""stims/audio/thats_cormorant.wav"",""stims/audio/thats_nyala.wav""]","[""cormorant"",""nyala""]",active,1,NA,NA,NA,NA,NA,NA,NA,NA,NA,NA,NA,NA,NA,NA,NA,NA,NA,NA,NA,NA,NA,NA,NA,NA,NA,NA,NA,NA,NA,NA,NA,NA,NA,NA,NA,NA,NA,NA,NA,NA,NA,NA,NA,NA
coact-grid-choice,31,140933,0.0-31.0,p004,1,0,NA,NA,NA,NA,NA,1297,NA,NA,"[""stims/images/cormorant.png"",""stims/images/elephant.png"",""stims/images/lynx.png"",""stims/images/zebra.png"",""stims/images/chameleon.png"",""stims/images/porcupine.png"",""stims/images/flamingo.png"",""stims/images/nyala.png""]",NA,NA,NA,NA,NA,1,NA,NA,stims/images/cormorant.png,NA,NA,NA,NA,NA,NA,right,"[""stims/images/cormorant.png"",""stims/images/nyala.png""]","[""stims/audio/thats_cormorant.wav"",""stims/audio/thats_nyala.wav""]","[""cormorant"",""nyala""]",active,1,1,stims/audio/thats_nyala.wav,"[""stims/images/nyala.png"",""stims/images/cormorant.png""]",NA,NA,NA,NA,NA,NA,NA,NA,NA,NA,NA,NA,NA,NA,NA,NA,NA,NA,NA,NA,NA,NA,NA,NA,NA,NA,nyala,unfamiliar,nyala.png,BOSS,n,,NA,NA,,,y,NA,NA,,14.22
coact-grid-choice-audio,32,143942,0.0-32.0,p004,1,0,NA,NA,NA,NA,NA,3000,NA,NA,"[""stims/images/cormorant.png"",""stims/images/elephant.png"",""stims/images/lynx.png"",""stims/images/zebra.png"",""stims/images/chameleon.png"",""stims/images/porcupine.png"",""stims/images/flamingo.png"",""stims/images/nyala.png""]",NA,NA,NA,NA,NA,1,NA,NA,stims/images/cormorant.png,NA,NA,NA,NA,NA,NA,right,NA,NA,NA,active,1,NA,stims/audio/thats_nyala.wav,"[""stims/images/nyala.png"",""stims/images/cormorant.png""]",NA,NA,NA,NA,NA,NA,NA,NA,NA,NA,NA,NA,NA,NA,NA,NA,NA,NA,NA,NA,NA,NA,NA,NA,NA,NA,nyala,unfamiliar,nyala.png,BOSS,n,,NA,NA,,,y,NA,NA,,14.22
coact-grid,33,150433,0.0-33.0,p004,1,0,NA,NA,NA,NA,NA,5184,NA,NA,"[""stims/images/porcupine.png"",""stims/images/zebra.png"",""stims/images/flamingo.png"",""stims/images/elephant.png"",""stims/images/chameleon.png"",""stims/images/nyala.png"",""stims/images/lynx.png"",""stims/images/cormorant.png""]",NA,NA,NA,NA,NA,1,NA,NA,NA,NA,NA,"[7,6]","[""stims/images/cormorant.png"",""stims/images/lynx.png""]","[""cormorant"",""lynx""]","[""stims/audio/thats_cormorant.wav"",""stims/audio/thats_lynx.wav""]",left,"[""stims/images/cormorant.png"",""stims/images/lynx.png""]","[""stims/audio/thats_cormorant.wav"",""stims/audio/thats_lynx.wav""]","[""cormorant"",""lynx""]",active,2,NA,NA,NA,NA,NA,NA,NA,NA,NA,NA,NA,NA,NA,NA,NA,NA,NA,NA,NA,NA,NA,NA,NA,NA,NA,NA,NA,NA,NA,NA,NA,NA,NA,NA,NA,NA,NA,NA,NA,NA,NA,NA,NA,NA
coact-grid-choice,34,152473,0.0-34.0,p004,1,0,NA,NA,NA,NA,NA,2038.9999999999418,NA,NA,"[""stims/images/porcupine.png"",""stims/images/zebra.png"",""stims/images/flamingo.png"",""stims/images/elephant.png"",""stims/images/chameleon.png"",""stims/images/nyala.png"",""stims/images/lynx.png"",""stims/images/cormorant.png""]",NA,NA,NA,NA,NA,1,NA,NA,stims/images/lynx.png,NA,NA,NA,NA,NA,NA,left,"[""stims/images/cormorant.png"",""stims/images/lynx.png""]","[""stims/audio/thats_cormorant.wav"",""stims/audio/thats_lynx.wav""]","[""cormorant"",""lynx""]",active,2,1,stims/audio/thats_lynx.wav,"[""stims/images/cormorant.png"",""stims/images/lynx.png""]",NA,NA,NA,NA,NA,NA,NA,NA,NA,NA,NA,NA,NA,NA,NA,NA,NA,NA,NA,NA,NA,NA,NA,NA,NA,NA,lynx,unfamiliar,lynx.png,BOSS,n,,10.53,13,,,y,NA,NA,,10.53
coact-grid-choice-audio,35,155486,0.0-35.0,p004,1,0,NA,NA,NA,NA,NA,3000,NA,NA,"[""stims/images/porcupine.png"",""stims/images/zebra.png"",""stims/images/flamingo.png"",""stims/images/elephant.png"",""stims/images/chameleon.png"",""stims/images/nyala.png"",""stims/images/lynx.png"",""stims/images/cormorant.png""]",NA,NA,NA,NA,NA,1,NA,NA,stims/images/lynx.png,NA,NA,NA,NA,NA,NA,left,NA,NA,NA,active,2,NA,stims/audio/thats_lynx.wav,"[""stims/images/cormorant.png"",""stims/images/lynx.png""]",NA,NA,NA,NA,NA,NA,NA,NA,NA,NA,NA,NA,NA,NA,NA,NA,NA,NA,NA,NA,NA,NA,NA,NA,NA,NA,lynx,unfamiliar,lynx.png,BOSS,n,,10.53,13,,,y,NA,NA,,10.53
coact-grid,36,163848,0.0-36.0,p004,1,0,NA,NA,NA,NA,NA,7055,NA,NA,"[""stims/images/porcupine.png"",""stims/images/flamingo.png"",""stims/images/cormorant.png"",""stims/images/elephant.png"",""stims/images/chameleon.png"",""stims/images/lynx.png"",""stims/images/nyala.png"",""stims/images/zebra.png""]",NA,NA,NA,NA,NA,1,NA,NA,NA,NA,NA,"[2,4]","[""stims/images/cormorant.png"",""stims/images/chameleon.png""]","[""cormorant"",""chameleon""]","[""stims/audio/its_cormorant.wav"",""stims/audio/its_chameleon.wav""]",right,"[""stims/images/chameleon.png"",""stims/images/cormorant.png""]","[""stims/audio/its_chameleon.wav"",""stims/audio/its_cormorant.wav""]","[""chameleon"",""cormorant""]",active,3,NA,NA,NA,NA,NA,NA,NA,NA,NA,NA,NA,NA,NA,NA,NA,NA,NA,NA,NA,NA,NA,NA,NA,NA,NA,NA,NA,NA,NA,NA,NA,NA,NA,NA,NA,NA,NA,NA,NA,NA,NA,NA,NA,NA
coact-grid-choice,37,165714,0.0-37.0,p004,1,0,NA,NA,NA,NA,NA,1863.9999999999418,NA,NA,"[""stims/images/porcupine.png"",""stims/images/flamingo.png"",""stims/images/cormorant.png"",""stims/images/elephant.png"",""stims/images/chameleon.png"",""stims/images/lynx.png"",""stims/images/nyala.png"",""stims/images/zebra.png""]",NA,NA,NA,NA,NA,1,NA,NA,stims/images/chameleon.png,NA,NA,NA,NA,NA,NA,right,"[""stims/images/chameleon.png"",""stims/images/cormorant.png""]","[""stims/audio/its_chameleon.wav"",""stims/audio/its_cormorant.wav""]","[""chameleon"",""cormorant""]",active,3,1,stims/audio/its_cormorant.wav,"[""stims/images/cormorant.png"",""stims/images/chameleon.png""]",NA,NA,NA,NA,NA,NA,NA,NA,NA,NA,NA,NA,NA,NA,NA,NA,NA,NA,NA,NA,NA,NA,NA,NA,NA,NA,cormorant,unfamiliar,cormorant.png,BOSS,n,,14.22,13,,,y,NA,NA,,14.22
coact-grid-choice-audio,38,168724,0.0-38.0,p004,1,0,NA,NA,NA,NA,NA,3003,NA,NA,"[""stims/images/porcupine.png"",""stims/images/flamingo.png"",""stims/images/cormorant.png"",""stims/images/elephant.png"",""stims/images/chameleon.png"",""stims/images/lynx.png"",""stims/images/nyala.png"",""stims/images/zebra.png""]",NA,NA,NA,NA,NA,1,NA,NA,stims/images/chameleon.png,NA,NA,NA,NA,NA,NA,right,NA,NA,NA,active,3,NA,stims/audio/its_cormorant.wav,"[""stims/images/cormorant.png"",""stims/images/chameleon.png""]",NA,NA,NA,NA,NA,NA,NA,NA,NA,NA,NA,NA,NA,NA,NA,NA,NA,NA,NA,NA,NA,NA,NA,NA,NA,NA,cormorant,unfamiliar,cormorant.png,BOSS,n,,14.22,13,,,y,NA,NA,,14.22
coact-grid,39,179138,0.0-39.0,p004,1,0,NA,NA,NA,NA,NA,9109,NA,NA,"[""stims/images/zebra.png"",""stims/images/nyala.png"",""stims/images/lynx.png"",""stims/images/porcupine.png"",""stims/images/chameleon.png"",""stims/images/cormorant.png"",""stims/images/flamingo.png"",""stims/images/elephant.png""]",NA,NA,NA,NA,NA,1,NA,NA,NA,NA,NA,"[4,6]","[""stims/images/chameleon.png"",""stims/images/flamingo.png""]","[""chameleon"",""flamingo""]","[""stims/audio/its_chameleon.wav"",""stims/audio/its_flamingo.wav""]",left,"[""stims/images/chameleon.png"",""stims/images/flamingo.png""]","[""stims/audio/its_chameleon.wav"",""stims/audio/its_flamingo.wav""]","[""chameleon"",""flamingo""]",active,4,NA,NA,NA,NA,NA,NA,NA,NA,NA,NA,NA,NA,NA,NA,NA,NA,NA,NA,NA,NA,NA,NA,NA,NA,NA,NA,NA,NA,NA,NA,NA,NA,NA,NA,NA,NA,NA,NA,NA,NA,NA,NA,NA,NA
coact-grid-choice,40,180539,0.0-40.0,p004,1,0,NA,NA,NA,NA,NA,1400,NA,NA,"[""stims/images/zebra.png"",""stims/images/nyala.png"",""stims/images/lynx.png"",""stims/images/porcupine.png"",""stims/images/chameleon.png"",""stims/images/cormorant.png"",""stims/images/flamingo.png"",""stims/images/elephant.png""]",NA,NA,NA,NA,NA,1,NA,NA,stims/images/chameleon.png,NA,NA,NA,NA,NA,NA,left,"[""stims/images/chameleon.png"",""stims/images/flamingo.png""]","[""stims/audio/its_chameleon.wav"",""stims/audio/its_flamingo.wav""]","[""chameleon"",""flamingo""]",active,4,0,stims/audio/its_chameleon.wav,"[""stims/images/chameleon.png"",""stims/images/flamingo.png""]",NA,NA,NA,NA,NA,NA,NA,NA,NA,NA,NA,NA,NA,NA,NA,NA,NA,NA,NA,NA,NA,NA,NA,NA,NA,NA,chameleon,somewhat_unfamiliar,chameleon.png,BOSS,n,,10.18,12,,,y,NA,NA,,10.18
coact-grid-choice-audio,41,183547,0.0-41.0,p004,1,0,NA,NA,NA,NA,NA,3000,NA,NA,"[""stims/images/zebra.png"",""stims/images/nyala.png"",""stims/images/lynx.png"",""stims/images/porcupine.png"",""stims/images/chameleon.png"",""stims/images/cormorant.png"",""stims/images/flamingo.png"",""stims/images/elephant.png""]",NA,NA,NA,NA,NA,1,NA,NA,stims/images/chameleon.png,NA,NA,NA,NA,NA,NA,left,NA,NA,NA,active,4,NA,stims/audio/its_chameleon.wav,"[""stims/images/chameleon.png"",""stims/images/flamingo.png""]",NA,NA,NA,NA,NA,NA,NA,NA,NA,NA,NA,NA,NA,NA,NA,NA,NA,NA,NA,NA,NA,NA,NA,NA,NA,NA,chameleon,somewhat_unfamiliar,chameleon.png,BOSS,n,,10.18,12,,,y,NA,NA,,10.18
coact-grid,42,191096,0.0-42.0,p004,1,0,NA,NA,NA,NA,NA,6243,NA,NA,"[""stims/images/cormorant.png"",""stims/images/flamingo.png"",""stims/images/nyala.png"",""stims/images/elephant.png"",""stims/images/chameleon.png"",""stims/images/porcupine.png"",""stims/images/zebra.png"",""stims/images/lynx.png""]",NA,NA,NA,NA,NA,1,NA,NA,NA,NA,NA,"[3,6]","[""stims/images/elephant.png"",""stims/images/zebra.png""]","[""elephant"",""zebra""]","[""stims/audio/its_elephant.wav"",""stims/audio/its_zebra.wav""]",right,"[""stims/images/zebra.png"",""stims/images/elephant.png""]","[""stims/audio/its_zebra.wav"",""stims/audio/its_elephant.wav""]","[""zebra"",""elephant""]",active,5,NA,NA,NA,NA,NA,NA,NA,NA,NA,NA,NA,NA,NA,NA,NA,NA,NA,NA,NA,NA,NA,NA,NA,NA,NA,NA,NA,NA,NA,NA,NA,NA,NA,NA,NA,NA,NA,NA,NA,NA,NA,NA,NA,NA
coact-grid-choice,43,195264,0.0-43.0,p004,1,0,NA,NA,NA,NA,NA,4167,NA,NA,"[""stims/images/cormorant.png"",""stims/images/flamingo.png"",""stims/images/nyala.png"",""stims/images/elephant.png"",""stims/images/chameleon.png"",""stims/images/porcupine.png"",""stims/images/zebra.png"",""stims/images/lynx.png""]",NA,NA,NA,NA,NA,1,NA,NA,stims/images/elephant.png,NA,NA,NA,NA,NA,NA,right,"[""stims/images/zebra.png"",""stims/images/elephant.png""]","[""stims/audio/its_zebra.wav"",""stims/audio/its_elephant.wav""]","[""zebra"",""elephant""]",active,5,0,stims/audio/its_zebra.wav,"[""stims/images/elephant.png"",""stims/images/zebra.png""]",NA,NA,NA,NA,NA,NA,NA,NA,NA,NA,NA,NA,NA,NA,NA,NA,NA,NA,NA,NA,NA,NA,NA,NA,NA,NA,zebra,familiar,zebra.png,BOSS,n,,4.79,2,,,y,NA,NA,,4.79
coact-grid-choice-audio,44,198273,0.0-44.0,p004,1,0,NA,NA,NA,NA,NA,3003,NA,NA,"[""stims/images/cormorant.png"",""stims/images/flamingo.png"",""stims/images/nyala.png"",""stims/images/elephant.png"",""stims/images/chameleon.png"",""stims/images/porcupine.png"",""stims/images/zebra.png"",""stims/images/lynx.png""]",NA,NA,NA,NA,NA,1,NA,NA,stims/images/elephant.png,NA,NA,NA,NA,NA,NA,right,NA,NA,NA,active,5,NA,stims/audio/its_zebra.wav,"[""stims/images/elephant.png"",""stims/images/zebra.png""]",NA,NA,NA,NA,NA,NA,NA,NA,NA,NA,NA,NA,NA,NA,NA,NA,NA,NA,NA,NA,NA,NA,NA,NA,NA,NA,zebra,familiar,zebra.png,BOSS,n,,4.79,2,,,y,NA,NA,,4.79
coact-test,47,215000,0.0-47.0,p004,1,0,NA,NA,NA,NA,NA,437857.00533333333,NA,NA,"[""stims/images/squirrel.png"",""stims/images/horse.png"",""stims/images/wolf.png"",""stims/images/cow.png"",""stims/images/frog.png"",""stims/images/cat.png"",""stims/images/duck.png"",""stims/images/butterfly.png""]",wolf,wolf,NA,familiar,practice_posttest,familiar,stims/audio/wheres_wolf.wav,2,stims/images/wolf.png,1,NA,NA,NA,NA,NA,NA,NA,NA,NA,NA,NA,NA,NA,NA,NA,NA,NA,NA,NA,NA,NA,NA,NA,NA,NA,NA,familiar,wolf.png,BOSS,n,,4.5,2,,,fam,NA,NA,,4.5,NA,NA,NA,NA,NA,NA,NA,NA,NA,NA,NA,NA,NA,NA,NA
coact-test,49,220835,0.0-49.0,p004,1,0,NA,NA,NA,NA,NA,443687.4693333333,NA,NA,"[""stims/images/cat.png"",""stims/images/wolf.png"",""stims/images/squirrel.png"",""stims/images/horse.png"",""stims/images/duck.png"",""stims/images/cow.png"",""stims/images/butterfly.png"",""stims/images/frog.png""]",squirrel,squirrel,NA,familiar,practice_posttest,familiar,stims/audio/find_squirrel.wav,2,stims/images/squirrel.png,1,NA,NA,NA,NA,NA,NA,NA,NA,NA,NA,NA,NA,NA,NA,NA,NA,NA,NA,NA,NA,NA,NA,NA,NA,NA,NA,familiar,squirrel.png,BOSS,n,,4.44,2,N,not a great picture,fam,NA,NA,,4.44,NA,NA,NA,NA,NA,NA,NA,NA,NA,NA,NA,NA,NA,NA,NA
coact-test,51,228681,0.0-51.0,p004,1,0,NA,NA,NA,NA,NA,451526.2160000001,NA,NA,"[""stims/images/chameleon.png"",""stims/images/elephant.png"",""stims/images/porcupine.png"",""stims/images/nyala.png"",""stims/images/zebra.png"",""stims/images/flamingo.png"",""stims/images/lynx.png"",""stims/images/cormorant.png""]",zebra,zebra,NA,familiar,posttest,1,stims/audio/find_zebra.wav,4,stims/images/zebra.png,1,NA,NA,NA,NA,NA,NA,NA,NA,NA,NA,NA,NA,NA,NA,NA,NA,NA,NA,NA,NA,NA,NA,NA,NA,NA,NA,familiar,zebra.png,BOSS,n,,4.79,2,,,y,NA,NA,,4.79,NA,NA,NA,NA,NA,NA,NA,NA,NA,NA,NA,NA,NA,NA,NA
coact-test,53,237537,0.0-53.0,p004,1,0,NA,NA,NA,NA,NA,460378.304,NA,NA,"[""stims/images/flamingo.png"",""stims/images/nyala.png"",""stims/images/zebra.png"",""stims/images/lynx.png"",""stims/images/cormorant.png"",""stims/images/elephant.png"",""stims/images/porcupine.png"",""stims/images/chameleon.png""]",cormorant,cormorant,NA,unfamiliar,posttest,1,stims/audio/wheres_cormorant.wav,4,stims/images/cormorant.png,1,NA,NA,NA,NA,NA,NA,NA,NA,NA,NA,NA,NA,NA,NA,NA,NA,NA,NA,NA,NA,NA,NA,NA,NA,NA,NA,unfamiliar,cormorant.png,BOSS,n,,14.22,13,,,y,NA,NA,,14.22,NA,NA,NA,NA,NA,NA,NA,NA,NA,NA,NA,NA,NA,NA,NA
coact-test,55,242206,0.0-55.0,p004,1,0,NA,NA,NA,NA,NA,465038.0746666667,NA,NA,"[""stims/images/nyala.png"",""stims/images/cormorant.png"",""stims/images/porcupine.png"",""stims/images/zebra.png"",""stims/images/flamingo.png"",""stims/images/lynx.png"",""stims/images/chameleon.png"",""stims/images/elephant.png""]",elephant,elephant,NA,familiar,posttest,1,stims/audio/find_elephant.wav,7,stims/images/elephant.png,1,NA,NA,NA,NA,NA,NA,NA,NA,NA,NA,NA,NA,NA,NA,NA,NA,NA,NA,NA,NA,NA,NA,NA,NA,NA,NA,familiar,elephant.png,BOSS,n,,4.8,2,,,y,NA,NA,,4.8,NA,NA,NA,NA,NA,NA,NA,NA,NA,NA,NA,NA,NA,NA,NA
coact-test,57,246141,0.0-57.0,p004,1,0,NA,NA,NA,NA,NA,468969.57866666664,NA,NA,"[""stims/images/elephant.png"",""stims/images/chameleon.png"",""stims/images/flamingo.png"",""stims/images/lynx.png"",""stims/images/cormorant.png"",""stims/images/nyala.png"",""stims/images/zebra.png"",""stims/images/porcupine.png""]",porcupine,porcupine,NA,somewhat familiar,posttest,1,stims/audio/wheres_porcupine.wav,7,stims/images/porcupine.png,1,NA,NA,NA,NA,NA,NA,NA,NA,NA,NA,NA,NA,NA,NA,NA,NA,NA,NA,NA,NA,NA,NA,NA,NA,NA,NA,somewhat_familiar,porcupine.png,BOSS,n,,6.89,6,,,y,NA,NA,,6.89,NA,NA,NA,NA,NA,NA,NA,NA,NA,NA,NA,NA,NA,NA,NA
coact-test,59,249902,0.0-59.0,p004,1,0,NA,NA,NA,NA,NA,472727.152,NA,NA,"[""stims/images/cormorant.png"",""stims/images/zebra.png"",""stims/images/nyala.png"",""stims/images/porcupine.png"",""stims/images/chameleon.png"",""stims/images/elephant.png"",""stims/images/flamingo.png"",""stims/images/lynx.png""]",chameleon,chameleon,NA,somewhat unfamiliar,posttest,1,stims/audio/find_chameleon.wav,4,stims/images/chameleon.png,1,NA,NA,NA,NA,NA,NA,NA,NA,NA,NA,NA,NA,NA,NA,NA,NA,NA,NA,NA,NA,NA,NA,NA,NA,NA,NA,somewhat_unfamiliar,chameleon.png,BOSS,n,,10.18,12,,,y,NA,NA,,10.18,NA,NA,NA,NA,NA,NA,NA,NA,NA,NA,NA,NA,NA,NA,NA
coact-test,61,261049,0.0-61.0,p004,1,0,NA,NA,NA,NA,NA,483871.2453333334,NA,NA,"[""stims/images/cormorant.png"",""stims/images/lynx.png"",""stims/images/chameleon.png"",""stims/images/porcupine.png"",""stims/images/nyala.png"",""stims/images/elephant.png"",""stims/images/flamingo.png"",""stims/images/zebra.png""]",nyala,nyala,NA,unfamiliar,posttest,1,stims/audio/wheres_nyala.wav,0,stims/images/cormorant.png,0,NA,NA,NA,NA,NA,NA,NA,NA,NA,NA,NA,NA,NA,NA,NA,NA,NA,NA,NA,NA,NA,NA,NA,NA,NA,NA,unfamiliar,nyala.png,BOSS,n,,NA,NA,,,y,NA,NA,,14.22,NA,NA,NA,NA,NA,NA,NA,NA,NA,NA,NA,NA,NA,NA,NA
coact-test,63,266146,0.0-63.0,p004,1,0,NA,NA,NA,NA,NA,488954.584,NA,NA,"[""stims/images/zebra.png"",""stims/images/porcupine.png"",""stims/images/nyala.png"",""stims/images/flamingo.png"",""stims/images/lynx.png"",""stims/images/chameleon.png"",""stims/images/cormorant.png"",""stims/images/elephant.png""]",lynx,lynx,NA,somewhat unfamiliar,posttest,1,stims/audio/find_lynx.wav,4,stims/images/lynx.png,1,NA,NA,NA,NA,NA,NA,NA,NA,NA,NA,NA,NA,NA,NA,NA,NA,NA,NA,NA,NA,NA,NA,NA,NA,NA,NA,unfamiliar,lynx.png,BOSS,n,,10.53,13,,,y,NA,NA,,10.53,NA,NA,NA,NA,NA,NA,NA,NA,NA,NA,NA,NA,NA,NA,NA
coact-test,65,269955,0.0-65.0,p004,1,0,NA,NA,NA,NA,NA,492761.29066666664,NA,NA,"[""stims/images/porcupine.png"",""stims/images/elephant.png"",""stims/images/nyala.png"",""stims/images/flamingo.png"",""stims/images/zebra.png"",""stims/images/chameleon.png"",""stims/images/cormorant.png"",""stims/images/lynx.png""]",flamingo,flamingo,NA,somewhat familiar,posttest,1,stims/audio/wheres_flamingo.wav,3,stims/images/flamingo.png,1,NA,NA,NA,NA,NA,NA,NA,NA,NA,NA,NA,NA,NA,NA,NA,NA,NA,NA,NA,NA,NA,NA,NA,NA,NA,NA,somewhat_familiar,flamingo.png,BOSS,n,,6.32,6,,,y,NA,NA,,6.32,NA,NA,NA,NA,NA,NA,NA,NA,NA,NA,NA,NA,NA,NA,NA
coact-test,4,8538,0.0-4.0,p004,2,1,NA,NA,NA,NA,NA,13078.858666666667,NA,NA,"[""stims/images/butterfly.png"",""stims/images/duck.png"",""stims/images/frog.png"",""stims/images/cow.png"",""stims/images/horse.png"",""stims/images/wolf.png"",""stims/images/cat.png"",""stims/images/squirrel.png""]",cow,cow,NA,familiar,practice_pretest,familiar,stims/audio/find_cow.wav,3,stims/images/cow.png,1,NA,NA,NA,NA,NA,NA,NA,NA,NA,NA,NA,NA,NA,NA,NA,NA,NA,NA,NA,NA,NA,NA,NA,NA,NA,NA,familiar,cow.png,BOSS,n,,3.94,2,,,fam,NA,0,somewhat unfamiliar,3.94,NA,NA,NA,NA,NA,NA,NA,NA,NA,NA,NA,NA,NA,NA,NA
coact-test,6,12249,0.0-6.0,p004,2,1,NA,NA,NA,NA,NA,16784.944,NA,NA,"[""stims/images/duck.png"",""stims/images/squirrel.png"",""stims/images/frog.png"",""stims/images/cat.png"",""stims/images/cow.png"",""stims/images/wolf.png"",""stims/images/horse.png"",""stims/images/butterfly.png""]",butterfly,butterfly,NA,familiar,practice_pretest,familiar,stims/audio/find_butterfly.wav,7,stims/images/butterfly.png,1,NA,NA,NA,NA,NA,NA,NA,NA,NA,NA,NA,NA,NA,NA,NA,NA,NA,NA,NA,NA,NA,NA,NA,NA,NA,NA,familiar,butterfly.png,BOSS,n,,3.67,2,,,fam,NA,8,familiar,3.67,NA,NA,NA,NA,NA,NA,NA,NA,NA,NA,NA,NA,NA,NA,NA
coact-test,8,15599,0.0-8.0,p004,2,1,NA,NA,NA,NA,NA,20132.365333333335,NA,NA,"[""stims/images/dolphin.png"",""stims/images/bear.png"",""stims/images/manatee.png"",""stims/images/raccoon.png"",""stims/images/rabbit.png"",""stims/images/wombat.png"",""stims/images/narwhal.png"",""stims/images/sloth.png""]",dolphin,dolphin,NA,somewhat familiar,pretest,2,stims/audio/wheres_dolphin.wav,0,stims/images/dolphin.png,1,NA,NA,NA,NA,NA,NA,NA,NA,NA,NA,NA,NA,NA,NA,NA,NA,NA,NA,NA,NA,NA,NA,NA,NA,NA,NA,somewhat_familiar,dolphin.png,BOSS,n,,6.05,10,,,y,NA,NA,,6.05,NA,NA,NA,NA,NA,NA,NA,NA,NA,NA,NA,NA,NA,NA,NA
coact-test,10,20569,0.0-10.0,p004,2,1,NA,NA,NA,NA,NA,25098.68266666667,NA,NA,"[""stims/images/bear.png"",""stims/images/sloth.png"",""stims/images/rabbit.png"",""stims/images/manatee.png"",""stims/images/dolphin.png"",""stims/images/raccoon.png"",""stims/images/wombat.png"",""stims/images/narwhal.png""]",wombat,wombat,NA,unfamiliar,pretest,2,stims/audio/find_wombat.wav,5,stims/images/raccoon.png,0,NA,NA,NA,NA,NA,NA,NA,NA,NA,NA,NA,NA,NA,NA,NA,NA,NA,NA,NA,NA,NA,NA,NA,NA,NA,NA,unfamiliar,editing_needed,dimy,y,,11.31,13,,,y,NA,NA,,11.31,NA,NA,NA,NA,NA,NA,NA,NA,NA,NA,NA,NA,NA,NA,NA
coact-test,12,25247,0.0-12.0,p004,2,1,NA,NA,NA,NA,NA,29772.330666666665,NA,NA,"[""stims/images/sloth.png"",""stims/images/bear.png"",""stims/images/manatee.png"",""stims/images/dolphin.png"",""stims/images/rabbit.png"",""stims/images/raccoon.png"",""stims/images/wombat.png"",""stims/images/narwhal.png""]",bear,bear,NA,familiar,pretest,2,stims/audio/find_bear.wav,1,stims/images/bear.png,1,NA,NA,NA,NA,NA,NA,NA,NA,NA,NA,NA,NA,NA,NA,NA,NA,NA,NA,NA,NA,NA,NA,NA,NA,NA,NA,familiar,bear.png,BOSS,n,,3.58,2,,,y,NA,NA,,3.58,NA,NA,NA,NA,NA,NA,NA,NA,NA,NA,NA,NA,NA,NA,NA
coact-test,14,31683,0.0-14.0,p004,2,1,NA,NA,NA,NA,NA,36203.81333333334,NA,NA,"[""stims/images/raccoon.png"",""stims/images/wombat.png"",""stims/images/dolphin.png"",""stims/images/sloth.png"",""stims/images/narwhal.png"",""stims/images/manatee.png"",""stims/images/rabbit.png"",""stims/images/bear.png""]",manatee,manatee,NA,somewhat unfamiliar,pretest,2,stims/audio/find_manatee.wav,3,stims/images/sloth.png,0,NA,NA,NA,NA,NA,NA,NA,NA,NA,NA,NA,NA,NA,NA,NA,NA,NA,NA,NA,NA,NA,NA,NA,NA,NA,NA,somewhat_unfamiliar,manatee.jpg,Moreno,y,,10.56,14,,,y,NA,NA,,10.56,NA,NA,NA,NA,NA,NA,NA,NA,NA,NA,NA,NA,NA,NA,NA
coact-test,16,35502,0.0-16.0,p004,2,1,NA,NA,NA,NA,NA,40016.65866666667,NA,NA,"[""stims/images/wombat.png"",""stims/images/rabbit.png"",""stims/images/manatee.png"",""stims/images/raccoon.png"",""stims/images/dolphin.png"",""stims/images/bear.png"",""stims/images/narwhal.png"",""stims/images/sloth.png""]",rabbit,rabbit,NA,familiar,pretest,2,stims/audio/wheres_rabbit.wav,1,stims/images/rabbit.png,1,NA,NA,NA,NA,NA,NA,NA,NA,NA,NA,NA,NA,NA,NA,NA,NA,NA,NA,NA,NA,NA,NA,NA,NA,NA,NA,familiar,rabbit.png,BOSS,n,,3.94,2,,,y,NA,NA,,3.94,NA,NA,NA,NA,NA,NA,NA,NA,NA,NA,NA,NA,NA,NA,NA
coact-test,18,39096,0.0-18.0,p004,2,1,NA,NA,NA,NA,NA,43606.72266666667,NA,NA,"[""stims/images/raccoon.png"",""stims/images/wombat.png"",""stims/images/narwhal.png"",""stims/images/bear.png"",""stims/images/sloth.png"",""stims/images/manatee.png"",""stims/images/rabbit.png"",""stims/images/dolphin.png""]",raccoon,raccoon,NA,somewhat familiar,pretest,2,stims/audio/wheres_raccoon.wav,0,stims/images/raccoon.png,1,NA,NA,NA,NA,NA,NA,NA,NA,NA,NA,NA,NA,NA,NA,NA,NA,NA,NA,NA,NA,NA,NA,NA,NA,NA,NA,somewhat_familiar,raccoon.png,BOSS,n,,6.79,2,,,y,NA,NA,,6.79,NA,NA,NA,NA,NA,NA,NA,NA,NA,NA,NA,NA,NA,NA,NA
coact-test,20,45130,0.0-20.0,p004,2,1,NA,NA,NA,NA,NA,49637.288,NA,NA,"[""stims/images/rabbit.png"",""stims/images/bear.png"",""stims/images/manatee.png"",""stims/images/raccoon.png"",""stims/images/narwhal.png"",""stims/images/sloth.png"",""stims/images/wombat.png"",""stims/images/dolphin.png""]",sloth,sloth,NA,somewhat unfamiliar,pretest,2,stims/audio/wheres_sloth.wav,5,stims/images/sloth.png,1,NA,NA,NA,NA,NA,NA,NA,NA,NA,NA,NA,NA,NA,NA,NA,NA,NA,NA,NA,NA,NA,NA,NA,NA,NA,NA,somewhat_unfamiliar,sloth.jpg,chen,y,,8.37,12,,,y,NA,NA,,8.37,NA,NA,NA,NA,NA,NA,NA,NA,NA,NA,NA,NA,NA,NA,NA
coact-test,22,49085,0.0-22.0,p004,2,1,NA,NA,NA,NA,NA,53586.92,NA,NA,"[""stims/images/manatee.png"",""stims/images/wombat.png"",""stims/images/bear.png"",""stims/images/narwhal.png"",""stims/images/dolphin.png"",""stims/images/rabbit.png"",""stims/images/sloth.png"",""stims/images/raccoon.png""]",narwhal,narwhal,NA,unfamiliar,pretest,2,stims/audio/find_narwhal.wav,0,stims/images/manatee.png,0,NA,NA,NA,NA,NA,NA,NA,NA,NA,NA,NA,NA,NA,NA,NA,NA,NA,NA,NA,NA,NA,NA,NA,NA,NA,NA,unfamiliar,narwhal.png,BOSS,n,,12.14,12,,,y,NA,NA,,12.14,NA,NA,NA,NA,NA,NA,NA,NA,NA,NA,NA,NA,NA,NA,NA
coact-grid,24,75049,0.0-24.0,p004,2,1,NA,NA,NA,NA,NA,3502,NA,NA,"[""stims/images/squirrel.png"",""stims/images/frog.png"",""stims/images/cow.png"",""stims/images/wolf.png"",""stims/images/duck.png"",""stims/images/horse.png"",""stims/images/butterfly.png"",""stims/images/cat.png""]",NA,NA,NA,NA,NA,familiar,NA,NA,NA,NA,NA,"[2,6]","[""stims/images/cow.png"",""stims/images/butterfly.png""]","[""cow"",""butterfly""]","[""stims/audio/thats_cow.wav"",""stims/audio/thats_butterfly.wav""]",right,"[""stims/images/butterfly.png"",""stims/images/cow.png""]","[""stims/audio/thats_butterfly.wav"",""stims/audio/thats_cow.wav""]","[""butterfly"",""cow""]",passive,0,NA,NA,NA,NA,NA,NA,NA,NA,NA,NA,NA,NA,NA,NA,NA,NA,NA,NA,NA,NA,NA,NA,NA,NA,NA,NA,NA,NA,NA,NA,NA,NA,NA,NA,NA,NA,NA,NA,NA,NA,NA,NA,NA,NA
coact-grid-choice,25,76619,0.0-25.0,p004,2,1,NA,NA,NA,NA,NA,1569,NA,NA,"[""stims/images/squirrel.png"",""stims/images/frog.png"",""stims/images/cow.png"",""stims/images/wolf.png"",""stims/images/duck.png"",""stims/images/horse.png"",""stims/images/butterfly.png"",""stims/images/cat.png""]",NA,NA,NA,NA,NA,familiar,NA,NA,stims/images/cow.png,NA,NA,NA,NA,NA,NA,right,"[""stims/images/butterfly.png"",""stims/images/cow.png""]","[""stims/audio/thats_butterfly.wav"",""stims/audio/thats_cow.wav""]","[""butterfly"",""cow""]",active,0,0,stims/audio/thats_butterfly.wav,"[""stims/images/cow.png"",""stims/images/butterfly.png""]",NA,NA,NA,NA,NA,NA,NA,NA,NA,NA,NA,NA,NA,NA,NA,NA,NA,NA,NA,NA,NA,NA,NA,NA,NA,NA,butterfly,familiar,butterfly.png,BOSS,n,,3.67,2,,,fam,NA,8,familiar,3.67
coact-grid-choice-audio,26,79630,0.0-26.0,p004,2,1,NA,NA,NA,NA,NA,3003,NA,NA,"[""stims/images/squirrel.png"",""stims/images/frog.png"",""stims/images/cow.png"",""stims/images/wolf.png"",""stims/images/duck.png"",""stims/images/horse.png"",""stims/images/butterfly.png"",""stims/images/cat.png""]",NA,NA,NA,NA,NA,familiar,NA,NA,stims/images/cow.png,NA,NA,NA,NA,NA,NA,right,NA,NA,NA,active,0,NA,stims/audio/thats_butterfly.wav,"[""stims/images/cow.png"",""stims/images/butterfly.png""]",NA,NA,NA,NA,NA,NA,NA,NA,NA,NA,NA,NA,NA,NA,NA,NA,NA,NA,NA,NA,NA,NA,NA,NA,NA,NA,butterfly,familiar,butterfly.png,BOSS,n,,3.67,2,,,fam,NA,8,familiar,3.67
coact-grid,27,83731,0.0-27.0,p004,2,1,NA,NA,NA,NA,NA,2789.0000000000146,NA,NA,"[""stims/images/sloth.png"",""stims/images/wombat.png"",""stims/images/raccoon.png"",""stims/images/manatee.png"",""stims/images/narwhal.png"",""stims/images/bear.png"",""stims/images/rabbit.png"",""stims/images/dolphin.png""]",NA,NA,NA,NA,NA,2,NA,NA,NA,NA,NA,"[5,1]","[""stims/images/bear.png"",""stims/images/wombat.png""]","[""bear"",""wombat""]","[""stims/audio/its_bear.wav"",""stims/audio/its_wombat.wav""]",right,"[""stims/images/wombat.png"",""stims/images/bear.png""]","[""stims/audio/its_wombat.wav"",""stims/audio/its_bear.wav""]","[""wombat"",""bear""]",passive,0,NA,NA,NA,NA,NA,NA,NA,NA,NA,NA,NA,NA,NA,NA,NA,NA,NA,NA,NA,NA,NA,NA,NA,NA,NA,NA,NA,NA,NA,NA,NA,NA,NA,NA,NA,NA,NA,NA,NA,NA,NA,NA,NA,NA
coact-grid-choice,28,85491,0.0-28.0,p004,2,1,NA,NA,NA,NA,NA,1759,NA,NA,"[""stims/images/sloth.png"",""stims/images/wombat.png"",""stims/images/raccoon.png"",""stims/images/manatee.png"",""stims/images/narwhal.png"",""stims/images/bear.png"",""stims/images/rabbit.png"",""stims/images/dolphin.png""]",NA,NA,NA,NA,NA,2,NA,NA,stims/images/bear.png,NA,NA,NA,NA,NA,NA,right,"[""stims/images/wombat.png"",""stims/images/bear.png""]","[""stims/audio/its_wombat.wav"",""stims/audio/its_bear.wav""]","[""wombat"",""bear""]",active,0,0,stims/audio/its_wombat.wav,"[""stims/images/bear.png"",""stims/images/wombat.png""]",NA,NA,NA,NA,NA,NA,NA,NA,NA,NA,NA,NA,NA,NA,NA,NA,NA,NA,NA,NA,NA,NA,NA,NA,NA,NA,wombat,unfamiliar,editing_needed,dimy,y,,11.31,13,,,y,NA,NA,,11.31
coact-grid-choice-audio,29,88499,0.0-29.0,p004,2,1,NA,NA,NA,NA,NA,3000,NA,NA,"[""stims/images/sloth.png"",""stims/images/wombat.png"",""stims/images/raccoon.png"",""stims/images/manatee.png"",""stims/images/narwhal.png"",""stims/images/bear.png"",""stims/images/rabbit.png"",""stims/images/dolphin.png""]",NA,NA,NA,NA,NA,2,NA,NA,stims/images/bear.png,NA,NA,NA,NA,NA,NA,right,NA,NA,NA,active,0,NA,stims/audio/its_wombat.wav,"[""stims/images/bear.png"",""stims/images/wombat.png""]",NA,NA,NA,NA,NA,NA,NA,NA,NA,NA,NA,NA,NA,NA,NA,NA,NA,NA,NA,NA,NA,NA,NA,NA,NA,NA,wombat,unfamiliar,editing_needed,dimy,y,,11.31,13,,,y,NA,NA,,11.31
coact-grid,30,92333,0.0-30.0,p004,2,1,NA,NA,NA,NA,NA,2528.0000000000146,NA,NA,"[""stims/images/manatee.png"",""stims/images/narwhal.png"",""stims/images/bear.png"",""stims/images/wombat.png"",""stims/images/dolphin.png"",""stims/images/sloth.png"",""stims/images/rabbit.png"",""stims/images/raccoon.png""]",NA,NA,NA,NA,NA,2,NA,NA,NA,NA,NA,"[0,4]","[""stims/images/manatee.png"",""stims/images/dolphin.png""]","[""manatee"",""dolphin""]","[""stims/audio/thats_manatee.wav"",""stims/audio/thats_dolphin.wav""]",right,"[""stims/images/dolphin.png"",""stims/images/manatee.png""]","[""stims/audio/thats_dolphin.wav"",""stims/audio/thats_manatee.wav""]","[""dolphin"",""manatee""]",passive,1,NA,NA,NA,NA,NA,NA,NA,NA,NA,NA,NA,NA,NA,NA,NA,NA,NA,NA,NA,NA,NA,NA,NA,NA,NA,NA,NA,NA,NA,NA,NA,NA,NA,NA,NA,NA,NA,NA,NA,NA,NA,NA,NA,NA
coact-grid-choice,31,95213,0.0-31.0,p004,2,1,NA,NA,NA,NA,NA,2880,NA,NA,"[""stims/images/manatee.png"",""stims/images/narwhal.png"",""stims/images/bear.png"",""stims/images/wombat.png"",""stims/images/dolphin.png"",""stims/images/sloth.png"",""stims/images/rabbit.png"",""stims/images/raccoon.png""]",NA,NA,NA,NA,NA,2,NA,NA,stims/images/dolphin.png,NA,NA,NA,NA,NA,NA,right,"[""stims/images/dolphin.png"",""stims/images/manatee.png""]","[""stims/audio/thats_dolphin.wav"",""stims/audio/thats_manatee.wav""]","[""dolphin"",""manatee""]",active,1,1,stims/audio/thats_manatee.wav,"[""stims/images/manatee.png"",""stims/images/dolphin.png""]",NA,NA,NA,NA,NA,NA,NA,NA,NA,NA,NA,NA,NA,NA,NA,NA,NA,NA,NA,NA,NA,NA,NA,NA,NA,NA,manatee,somewhat_unfamiliar,manatee.jpg,Moreno,y,,10.56,14,,,y,NA,NA,,10.56
coact-grid-choice-audio,32,98222,0.0-32.0,p004,2,1,NA,NA,NA,NA,NA,3003,NA,NA,"[""stims/images/manatee.png"",""stims/images/narwhal.png"",""stims/images/bear.png"",""stims/images/wombat.png"",""stims/images/dolphin.png"",""stims/images/sloth.png"",""stims/images/rabbit.png"",""stims/images/raccoon.png""]",NA,NA,NA,NA,NA,2,NA,NA,stims/images/dolphin.png,NA,NA,NA,NA,NA,NA,right,NA,NA,NA,active,1,NA,stims/audio/thats_manatee.wav,"[""stims/images/manatee.png"",""stims/images/dolphin.png""]",NA,NA,NA,NA,NA,NA,NA,NA,NA,NA,NA,NA,NA,NA,NA,NA,NA,NA,NA,NA,NA,NA,NA,NA,NA,NA,manatee,somewhat_unfamiliar,manatee.jpg,Moreno,y,,10.56,14,,,y,NA,NA,,10.56
coact-grid,33,102028,0.0-33.0,p004,2,1,NA,NA,NA,NA,NA,2499,NA,NA,"[""stims/images/narwhal.png"",""stims/images/rabbit.png"",""stims/images/sloth.png"",""stims/images/bear.png"",""stims/images/dolphin.png"",""stims/images/wombat.png"",""stims/images/raccoon.png"",""stims/images/manatee.png""]",NA,NA,NA,NA,NA,2,NA,NA,NA,NA,NA,"[3,7]","[""stims/images/bear.png"",""stims/images/manatee.png""]","[""bear"",""manatee""]","[""stims/audio/thats_bear.wav"",""stims/audio/thats_manatee.wav""]",right,"[""stims/images/manatee.png"",""stims/images/bear.png""]","[""stims/audio/thats_manatee.wav"",""stims/audio/thats_bear.wav""]","[""manatee"",""bear""]",passive,2,NA,NA,NA,NA,NA,NA,NA,NA,NA,NA,NA,NA,NA,NA,NA,NA,NA,NA,NA,NA,NA,NA,NA,NA,NA,NA,NA,NA,NA,NA,NA,NA,NA,NA,NA,NA,NA,NA,NA,NA,NA,NA,NA,NA
coact-grid-choice,34,103685,0.0-34.0,p004,2,1,NA,NA,NA,NA,NA,1656.0000000000146,NA,NA,"[""stims/images/narwhal.png"",""stims/images/rabbit.png"",""stims/images/sloth.png"",""stims/images/bear.png"",""stims/images/dolphin.png"",""stims/images/wombat.png"",""stims/images/raccoon.png"",""stims/images/manatee.png""]",NA,NA,NA,NA,NA,2,NA,NA,stims/images/bear.png,NA,NA,NA,NA,NA,NA,right,"[""stims/images/manatee.png"",""stims/images/bear.png""]","[""stims/audio/thats_manatee.wav"",""stims/audio/thats_bear.wav""]","[""manatee"",""bear""]",active,2,0,stims/audio/thats_manatee.wav,"[""stims/images/bear.png"",""stims/images/manatee.png""]",NA,NA,NA,NA,NA,NA,NA,NA,NA,NA,NA,NA,NA,NA,NA,NA,NA,NA,NA,NA,NA,NA,NA,NA,NA,NA,manatee,somewhat_unfamiliar,manatee.jpg,Moreno,y,,10.56,14,,,y,NA,NA,,10.56
coact-grid-choice-audio,35,106693,0.0-35.0,p004,2,1,NA,NA,NA,NA,NA,3000,NA,NA,"[""stims/images/narwhal.png"",""stims/images/rabbit.png"",""stims/images/sloth.png"",""stims/images/bear.png"",""stims/images/dolphin.png"",""stims/images/wombat.png"",""stims/images/raccoon.png"",""stims/images/manatee.png""]",NA,NA,NA,NA,NA,2,NA,NA,stims/images/bear.png,NA,NA,NA,NA,NA,NA,right,NA,NA,NA,active,2,NA,stims/audio/thats_manatee.wav,"[""stims/images/bear.png"",""stims/images/manatee.png""]",NA,NA,NA,NA,NA,NA,NA,NA,NA,NA,NA,NA,NA,NA,NA,NA,NA,NA,NA,NA,NA,NA,NA,NA,NA,NA,manatee,somewhat_unfamiliar,manatee.jpg,Moreno,y,,10.56,14,,,y,NA,NA,,10.56
coact-grid,36,110224,0.0-36.0,p004,2,1,NA,NA,NA,NA,NA,2225.0000000000146,NA,NA,"[""stims/images/raccoon.png"",""stims/images/rabbit.png"",""stims/images/narwhal.png"",""stims/images/sloth.png"",""stims/images/manatee.png"",""stims/images/bear.png"",""stims/images/dolphin.png"",""stims/images/wombat.png""]",NA,NA,NA,NA,NA,2,NA,NA,NA,NA,NA,"[3,6]","[""stims/images/sloth.png"",""stims/images/dolphin.png""]","[""sloth"",""dolphin""]","[""stims/audio/its_sloth.wav"",""stims/audio/its_dolphin.wav""]",left,"[""stims/images/sloth.png"",""stims/images/dolphin.png""]","[""stims/audio/its_sloth.wav"",""stims/audio/its_dolphin.wav""]","[""sloth"",""dolphin""]",passive,3,NA,NA,NA,NA,NA,NA,NA,NA,NA,NA,NA,NA,NA,NA,NA,NA,NA,NA,NA,NA,NA,NA,NA,NA,NA,NA,NA,NA,NA,NA,NA,NA,NA,NA,NA,NA,NA,NA,NA,NA,NA,NA,NA,NA
coact-grid-choice,37,111873,0.0-37.0,p004,2,1,NA,NA,NA,NA,NA,1647,NA,NA,"[""stims/images/raccoon.png"",""stims/images/rabbit.png"",""stims/images/narwhal.png"",""stims/images/sloth.png"",""stims/images/manatee.png"",""stims/images/bear.png"",""stims/images/dolphin.png"",""stims/images/wombat.png""]",NA,NA,NA,NA,NA,2,NA,NA,stims/images/dolphin.png,NA,NA,NA,NA,NA,NA,left,"[""stims/images/sloth.png"",""stims/images/dolphin.png""]","[""stims/audio/its_sloth.wav"",""stims/audio/its_dolphin.wav""]","[""sloth"",""dolphin""]",active,3,1,stims/audio/its_dolphin.wav,"[""stims/images/sloth.png"",""stims/images/dolphin.png""]",NA,NA,NA,NA,NA,NA,NA,NA,NA,NA,NA,NA,NA,NA,NA,NA,NA,NA,NA,NA,NA,NA,NA,NA,NA,NA,dolphin,somewhat_familiar,dolphin.png,BOSS,n,,6.05,10,,,y,NA,NA,,6.05
coact-grid-choice-audio,38,114882,0.0-38.0,p004,2,1,NA,NA,NA,NA,NA,3000,NA,NA,"[""stims/images/raccoon.png"",""stims/images/rabbit.png"",""stims/images/narwhal.png"",""stims/images/sloth.png"",""stims/images/manatee.png"",""stims/images/bear.png"",""stims/images/dolphin.png"",""stims/images/wombat.png""]",NA,NA,NA,NA,NA,2,NA,NA,stims/images/dolphin.png,NA,NA,NA,NA,NA,NA,left,NA,NA,NA,active,3,NA,stims/audio/its_dolphin.wav,"[""stims/images/sloth.png"",""stims/images/dolphin.png""]",NA,NA,NA,NA,NA,NA,NA,NA,NA,NA,NA,NA,NA,NA,NA,NA,NA,NA,NA,NA,NA,NA,NA,NA,NA,NA,dolphin,somewhat_familiar,dolphin.png,BOSS,n,,6.05,10,,,y,NA,NA,,6.05
coact-grid,39,118496,0.0-39.0,p004,2,1,NA,NA,NA,NA,NA,2307,NA,NA,"[""stims/images/sloth.png"",""stims/images/dolphin.png"",""stims/images/manatee.png"",""stims/images/wombat.png"",""stims/images/bear.png"",""stims/images/narwhal.png"",""stims/images/raccoon.png"",""stims/images/rabbit.png""]",NA,NA,NA,NA,NA,2,NA,NA,NA,NA,NA,"[4,5]","[""stims/images/bear.png"",""stims/images/narwhal.png""]","[""bear"",""narwhal""]","[""stims/audio/thats_bear.wav"",""stims/audio/thats_narwhal.wav""]",left,"[""stims/images/bear.png"",""stims/images/narwhal.png""]","[""stims/audio/thats_bear.wav"",""stims/audio/thats_narwhal.wav""]","[""bear"",""narwhal""]",passive,4,NA,NA,NA,NA,NA,NA,NA,NA,NA,NA,NA,NA,NA,NA,NA,NA,NA,NA,NA,NA,NA,NA,NA,NA,NA,NA,NA,NA,NA,NA,NA,NA,NA,NA,NA,NA,NA,NA,NA,NA,NA,NA,NA,NA
coact-grid-choice,40,120278,0.0-40.0,p004,2,1,NA,NA,NA,NA,NA,1782,NA,NA,"[""stims/images/sloth.png"",""stims/images/dolphin.png"",""stims/images/manatee.png"",""stims/images/wombat.png"",""stims/images/bear.png"",""stims/images/narwhal.png"",""stims/images/raccoon.png"",""stims/images/rabbit.png""]",NA,NA,NA,NA,NA,2,NA,NA,stims/images/narwhal.png,NA,NA,NA,NA,NA,NA,left,"[""stims/images/bear.png"",""stims/images/narwhal.png""]","[""stims/audio/thats_bear.wav"",""stims/audio/thats_narwhal.wav""]","[""bear"",""narwhal""]",active,4,1,stims/audio/thats_narwhal.wav,"[""stims/images/bear.png"",""stims/images/narwhal.png""]",NA,NA,NA,NA,NA,NA,NA,NA,NA,NA,NA,NA,NA,NA,NA,NA,NA,NA,NA,NA,NA,NA,NA,NA,NA,NA,narwhal,unfamiliar,narwhal.png,BOSS,n,,12.14,12,,,y,NA,NA,,12.14
coact-grid-choice-audio,41,123289,0.0-41.0,p004,2,1,NA,NA,NA,NA,NA,3003,NA,NA,"[""stims/images/sloth.png"",""stims/images/dolphin.png"",""stims/images/manatee.png"",""stims/images/wombat.png"",""stims/images/bear.png"",""stims/images/narwhal.png"",""stims/images/raccoon.png"",""stims/images/rabbit.png""]",NA,NA,NA,NA,NA,2,NA,NA,stims/images/narwhal.png,NA,NA,NA,NA,NA,NA,left,NA,NA,NA,active,4,NA,stims/audio/thats_narwhal.wav,"[""stims/images/bear.png"",""stims/images/narwhal.png""]",NA,NA,NA,NA,NA,NA,NA,NA,NA,NA,NA,NA,NA,NA,NA,NA,NA,NA,NA,NA,NA,NA,NA,NA,NA,NA,narwhal,unfamiliar,narwhal.png,BOSS,n,,12.14,12,,,y,NA,NA,,12.14
coact-grid,42,126993,0.0-42.0,p004,2,1,NA,NA,NA,NA,NA,2397,NA,NA,"[""stims/images/dolphin.png"",""stims/images/bear.png"",""stims/images/narwhal.png"",""stims/images/manatee.png"",""stims/images/raccoon.png"",""stims/images/rabbit.png"",""stims/images/sloth.png"",""stims/images/wombat.png""]",NA,NA,NA,NA,NA,2,NA,NA,NA,NA,NA,"[5,4]","[""stims/images/rabbit.png"",""stims/images/raccoon.png""]","[""rabbit"",""raccoon""]","[""stims/audio/its_rabbit.wav"",""stims/audio/its_raccoon.wav""]",left,"[""stims/images/rabbit.png"",""stims/images/raccoon.png""]","[""stims/audio/its_rabbit.wav"",""stims/audio/its_raccoon.wav""]","[""rabbit"",""raccoon""]",passive,5,NA,NA,NA,NA,NA,NA,NA,NA,NA,NA,NA,NA,NA,NA,NA,NA,NA,NA,NA,NA,NA,NA,NA,NA,NA,NA,NA,NA,NA,NA,NA,NA,NA,NA,NA,NA,NA,NA,NA,NA,NA,NA,NA,NA
coact-grid-choice,43,128265,0.0-43.0,p004,2,1,NA,NA,NA,NA,NA,1270.000000000029,NA,NA,"[""stims/images/dolphin.png"",""stims/images/bear.png"",""stims/images/narwhal.png"",""stims/images/manatee.png"",""stims/images/raccoon.png"",""stims/images/rabbit.png"",""stims/images/sloth.png"",""stims/images/wombat.png""]",NA,NA,NA,NA,NA,2,NA,NA,stims/images/raccoon.png,NA,NA,NA,NA,NA,NA,left,"[""stims/images/rabbit.png"",""stims/images/raccoon.png""]","[""stims/audio/its_rabbit.wav"",""stims/audio/its_raccoon.wav""]","[""rabbit"",""raccoon""]",active,5,1,stims/audio/its_raccoon.wav,"[""stims/images/rabbit.png"",""stims/images/raccoon.png""]",NA,NA,NA,NA,NA,NA,NA,NA,NA,NA,NA,NA,NA,NA,NA,NA,NA,NA,NA,NA,NA,NA,NA,NA,NA,NA,raccoon,somewhat_familiar,raccoon.png,BOSS,n,,6.79,2,,,y,NA,NA,,6.79
coact-grid-choice-audio,44,131274,0.0-44.0,p004,2,1,NA,NA,NA,NA,NA,3003,NA,NA,"[""stims/images/dolphin.png"",""stims/images/bear.png"",""stims/images/narwhal.png"",""stims/images/manatee.png"",""stims/images/raccoon.png"",""stims/images/rabbit.png"",""stims/images/sloth.png"",""stims/images/wombat.png""]",NA,NA,NA,NA,NA,2,NA,NA,stims/images/raccoon.png,NA,NA,NA,NA,NA,NA,left,NA,NA,NA,active,5,NA,stims/audio/its_raccoon.wav,"[""stims/images/rabbit.png"",""stims/images/raccoon.png""]",NA,NA,NA,NA,NA,NA,NA,NA,NA,NA,NA,NA,NA,NA,NA,NA,NA,NA,NA,NA,NA,NA,NA,NA,NA,NA,raccoon,somewhat_familiar,raccoon.png,BOSS,n,,6.79,2,,,y,NA,NA,,6.79
coact-test,47,146757,0.0-47.0,p004,2,1,NA,NA,NA,NA,NA,151166.43466666667,NA,NA,"[""stims/images/cat.png"",""stims/images/cow.png"",""stims/images/wolf.png"",""stims/images/horse.png"",""stims/images/frog.png"",""stims/images/squirrel.png"",""stims/images/butterfly.png"",""stims/images/duck.png""]",cow,cow,NA,familiar,practice_posttest,familiar,stims/audio/wheres_cow.wav,1,stims/images/cow.png,1,NA,NA,NA,NA,NA,NA,NA,NA,NA,NA,NA,NA,NA,NA,NA,NA,NA,NA,NA,NA,NA,NA,NA,NA,NA,NA,familiar,cow.png,BOSS,n,,3.94,2,,,fam,NA,0,somewhat unfamiliar,3.94,NA,NA,NA,NA,NA,NA,NA,NA,NA,NA,NA,NA,NA,NA,NA
coact-test,49,151586,0.0-49.0,p004,2,1,NA,NA,NA,NA,NA,155991.4666666667,NA,NA,"[""stims/images/cat.png"",""stims/images/cow.png"",""stims/images/wolf.png"",""stims/images/butterfly.png"",""stims/images/horse.png"",""stims/images/duck.png"",""stims/images/frog.png"",""stims/images/squirrel.png""]",butterfly,butterfly,NA,familiar,practice_posttest,familiar,stims/audio/wheres_butterfly.wav,3,stims/images/butterfly.png,1,NA,NA,NA,NA,NA,NA,NA,NA,NA,NA,NA,NA,NA,NA,NA,NA,NA,NA,NA,NA,NA,NA,NA,NA,NA,NA,familiar,butterfly.png,BOSS,n,,3.67,2,,,fam,NA,8,familiar,3.67,NA,NA,NA,NA,NA,NA,NA,NA,NA,NA,NA,NA,NA,NA,NA
coact-test,51,156730,0.0-51.0,p004,2,1,NA,NA,NA,NA,NA,161131.56533333333,NA,NA,"[""stims/images/raccoon.png"",""stims/images/dolphin.png"",""stims/images/wombat.png"",""stims/images/sloth.png"",""stims/images/narwhal.png"",""stims/images/rabbit.png"",""stims/images/manatee.png"",""stims/images/bear.png""]",rabbit,rabbit,NA,familiar,posttest,2,stims/audio/find_rabbit.wav,5,stims/images/rabbit.png,1,NA,NA,NA,NA,NA,NA,NA,NA,NA,NA,NA,NA,NA,NA,NA,NA,NA,NA,NA,NA,NA,NA,NA,NA,NA,NA,familiar,rabbit.png,BOSS,n,,3.94,2,,,y,NA,NA,,3.94,NA,NA,NA,NA,NA,NA,NA,NA,NA,NA,NA,NA,NA,NA,NA
coact-test,53,163076,0.0-53.0,p004,2,1,NA,NA,NA,NA,NA,167472.27733333333,NA,NA,"[""stims/images/bear.png"",""stims/images/manatee.png"",""stims/images/wombat.png"",""stims/images/narwhal.png"",""stims/images/sloth.png"",""stims/images/rabbit.png"",""stims/images/raccoon.png"",""stims/images/dolphin.png""]",wombat,wombat,NA,unfamiliar,posttest,2,stims/audio/wheres_wombat.wav,2,stims/images/wombat.png,1,NA,NA,NA,NA,NA,NA,NA,NA,NA,NA,NA,NA,NA,NA,NA,NA,NA,NA,NA,NA,NA,NA,NA,NA,NA,NA,unfamiliar,editing_needed,dimy,y,,11.31,13,,,y,NA,NA,,11.31,NA,NA,NA,NA,NA,NA,NA,NA,NA,NA,NA,NA,NA,NA,NA
coact-test,55,168169,0.0-55.0,p004,2,1,NA,NA,NA,NA,NA,172558.36533333332,NA,NA,"[""stims/images/wombat.png"",""stims/images/bear.png"",""stims/images/raccoon.png"",""stims/images/sloth.png"",""stims/images/rabbit.png"",""stims/images/manatee.png"",""stims/images/dolphin.png"",""stims/images/narwhal.png""]",raccoon,raccoon,NA,somewhat familiar,posttest,2,stims/audio/find_raccoon.wav,2,stims/images/raccoon.png,1,NA,NA,NA,NA,NA,NA,NA,NA,NA,NA,NA,NA,NA,NA,NA,NA,NA,NA,NA,NA,NA,NA,NA,NA,NA,NA,somewhat_familiar,raccoon.png,BOSS,n,,6.79,2,,,y,NA,NA,,6.79,NA,NA,NA,NA,NA,NA,NA,NA,NA,NA,NA,NA,NA,NA,NA
coact-test,57,172724,0.0-57.0,p004,2,1,NA,NA,NA,NA,NA,177108.24533333333,NA,NA,"[""stims/images/narwhal.png"",""stims/images/manatee.png"",""stims/images/wombat.png"",""stims/images/bear.png"",""stims/images/dolphin.png"",""stims/images/raccoon.png"",""stims/images/sloth.png"",""stims/images/rabbit.png""]",dolphin,dolphin,NA,somewhat familiar,posttest,2,stims/audio/wheres_dolphin.wav,4,stims/images/dolphin.png,1,NA,NA,NA,NA,NA,NA,NA,NA,NA,NA,NA,NA,NA,NA,NA,NA,NA,NA,NA,NA,NA,NA,NA,NA,NA,NA,somewhat_familiar,dolphin.png,BOSS,n,,6.05,10,,,y,NA,NA,,6.05,NA,NA,NA,NA,NA,NA,NA,NA,NA,NA,NA,NA,NA,NA,NA
coact-test,59,176156,0.0-59.0,p004,2,1,NA,NA,NA,NA,NA,180537.89333333334,NA,NA,"[""stims/images/raccoon.png"",""stims/images/manatee.png"",""stims/images/wombat.png"",""stims/images/dolphin.png"",""stims/images/rabbit.png"",""stims/images/narwhal.png"",""stims/images/bear.png"",""stims/images/sloth.png""]",narwhal,narwhal,NA,unfamiliar,posttest,2,stims/audio/wheres_narwhal.wav,5,stims/images/narwhal.png,1,NA,NA,NA,NA,NA,NA,NA,NA,NA,NA,NA,NA,NA,NA,NA,NA,NA,NA,NA,NA,NA,NA,NA,NA,NA,NA,unfamiliar,narwhal.png,BOSS,n,,12.14,12,,,y,NA,NA,,12.14,NA,NA,NA,NA,NA,NA,NA,NA,NA,NA,NA,NA,NA,NA,NA
coact-test,61,179800,0.0-61.0,p004,2,1,NA,NA,NA,NA,NA,184177.856,NA,NA,"[""stims/images/manatee.png"",""stims/images/rabbit.png"",""stims/images/narwhal.png"",""stims/images/raccoon.png"",""stims/images/dolphin.png"",""stims/images/bear.png"",""stims/images/sloth.png"",""stims/images/wombat.png""]",bear,bear,NA,familiar,posttest,2,stims/audio/find_bear.wav,5,stims/images/bear.png,1,NA,NA,NA,NA,NA,NA,NA,NA,NA,NA,NA,NA,NA,NA,NA,NA,NA,NA,NA,NA,NA,NA,NA,NA,NA,NA,familiar,bear.png,BOSS,n,,3.58,2,,,y,NA,NA,,3.58,NA,NA,NA,NA,NA,NA,NA,NA,NA,NA,NA,NA,NA,NA,NA
coact-test,63,186112,0.0-63.0,p004,2,1,NA,NA,NA,NA,NA,190487.672,NA,NA,"[""stims/images/dolphin.png"",""stims/images/bear.png"",""stims/images/raccoon.png"",""stims/images/rabbit.png"",""stims/images/narwhal.png"",""stims/images/wombat.png"",""stims/images/sloth.png"",""stims/images/manatee.png""]",sloth,sloth,NA,somewhat unfamiliar,posttest,2,stims/audio/wheres_sloth.wav,6,stims/images/sloth.png,1,NA,NA,NA,NA,NA,NA,NA,NA,NA,NA,NA,NA,NA,NA,NA,NA,NA,NA,NA,NA,NA,NA,NA,NA,NA,NA,somewhat_unfamiliar,sloth.jpg,chen,y,,8.37,12,,,y,NA,NA,,8.37,NA,NA,NA,NA,NA,NA,NA,NA,NA,NA,NA,NA,NA,NA,NA
coact-test,65,189914,0.0-65.0,p004,2,1,NA,NA,NA,NA,NA,194283.328,NA,NA,"[""stims/images/dolphin.png"",""stims/images/raccoon.png"",""stims/images/bear.png"",""stims/images/manatee.png"",""stims/images/wombat.png"",""stims/images/sloth.png"",""stims/images/narwhal.png"",""stims/images/rabbit.png""]",manatee,manatee,NA,somewhat unfamiliar,posttest,2,stims/audio/find_manatee.wav,3,stims/images/manatee.png,1,NA,NA,NA,NA,NA,NA,NA,NA,NA,NA,NA,NA,NA,NA,NA,NA,NA,NA,NA,NA,NA,NA,NA,NA,NA,NA,somewhat_unfamiliar,manatee.jpg,Moreno,y,,10.56,14,,,y,NA,NA,,10.56,NA,NA,NA,NA,NA,NA,NA,NA,NA,NA,NA,NA,NA,NA,NA
coact-test,4,7662,0.0-4.0,p004,3,2,NA,NA,NA,NA,NA,11838.045333333333,NA,NA,"[""stims/images/butterfly.png"",""stims/images/frog.png"",""stims/images/wolf.png"",""stims/images/cat.png"",""stims/images/horse.png"",""stims/images/cow.png"",""stims/images/duck.png"",""stims/images/squirrel.png""]",frog,frog,NA,familiar,practice_pretest,familiar,stims/audio/find_frog.wav,1,stims/images/frog.png,1,NA,NA,NA,NA,NA,NA,NA,NA,NA,NA,NA,NA,NA,NA,NA,NA,NA,NA,NA,NA,NA,NA,NA,NA,NA,NA,familiar,frog.png,CARE,n,,4.32,2,,,fam,NA,NA,,4.32,NA,NA,NA,NA,NA,NA,NA,NA,NA,NA,NA,NA,NA,NA,NA
coact-test,6,13992,0.0-6.0,p004,3,2,NA,NA,NA,NA,NA,18163.485333333334,NA,NA,"[""stims/images/frog.png"",""stims/images/wolf.png"",""stims/images/horse.png"",""stims/images/cat.png"",""stims/images/duck.png"",""stims/images/squirrel.png"",""stims/images/butterfly.png"",""stims/images/cow.png""]",duck,duck,NA,familiar,practice_pretest,familiar,stims/audio/wheres_duck.wav,4,stims/images/duck.png,1,NA,NA,NA,NA,NA,NA,NA,NA,NA,NA,NA,NA,NA,NA,NA,NA,NA,NA,NA,NA,NA,NA,NA,NA,NA,NA,familiar,duck.png,MEM,n,,3.5,2,,,fam,NA,8,familiar_exp,3.5,NA,NA,NA,NA,NA,NA,NA,NA,NA,NA,NA,NA,NA,NA,NA
coact-test,8,21630,0.0-8.0,p004,3,2,NA,NA,NA,NA,NA,25795.962666666666,NA,NA,"[""stims/images/alpaca.png"",""stims/images/tiger.png"",""stims/images/jaguar.png"",""stims/images/antelope.png"",""stims/images/pangolin.png"",""stims/images/koala.png"",""stims/images/dog.png"",""stims/images/tarsier.png""]",koala,koala,NA,somewhat familiar,pretest,3,stims/audio/wheres_koala.wav,5,stims/images/koala.png,1,NA,NA,NA,NA,NA,NA,NA,NA,NA,NA,NA,NA,NA,NA,NA,NA,NA,NA,NA,NA,NA,NA,NA,NA,NA,NA,somewhat_familiar,koala.jpg,dimy,y,,6,10,,,y,NA,NA,,6,NA,NA,NA,NA,NA,NA,NA,NA,NA,NA,NA,NA,NA,NA,NA
coact-test,10,28710,0.0-10.0,p004,3,2,NA,NA,NA,NA,NA,32867.23466666666,NA,NA,"[""stims/images/dog.png"",""stims/images/tarsier.png"",""stims/images/pangolin.png"",""stims/images/koala.png"",""stims/images/tiger.png"",""stims/images/jaguar.png"",""stims/images/antelope.png"",""stims/images/alpaca.png""]",antelope,antelope,NA,somewhat unfamiliar,pretest,3,stims/audio/wheres_antelope.wav,6,stims/images/antelope.png,1,NA,NA,NA,NA,NA,NA,NA,NA,NA,NA,NA,NA,NA,NA,NA,NA,NA,NA,NA,NA,NA,NA,NA,NA,NA,NA,somewhat_unfamiliar,antelope.png,BOSS,n,,8.39,4,,,y,NA,NA,,8.39,NA,NA,NA,NA,NA,NA,NA,NA,NA,NA,NA,NA,NA,NA,NA
coact-test,12,35306,0.0-12.0,p004,3,2,NA,NA,NA,NA,NA,39457.28,NA,NA,"[""stims/images/alpaca.png"",""stims/images/pangolin.png"",""stims/images/antelope.png"",""stims/images/tarsier.png"",""stims/images/dog.png"",""stims/images/koala.png"",""stims/images/jaguar.png"",""stims/images/tiger.png""]",pangolin,pangolin,NA,unfamiliar,pretest,3,stims/audio/wheres_pangolin.wav,3,stims/images/tarsier.png,0,NA,NA,NA,NA,NA,NA,NA,NA,NA,NA,NA,NA,NA,NA,NA,NA,NA,NA,NA,NA,NA,NA,NA,NA,NA,NA,unfamiliar,pangolin.jpg,dimy,n,,NA,13,,,y,NA,NA,,14.22,NA,NA,NA,NA,NA,NA,NA,NA,NA,NA,NA,NA,NA,NA,NA
coact-test,14,42744,0.0-14.0,p004,3,2,NA,NA,NA,NA,NA,46886.34133333333,NA,NA,"[""stims/images/koala.png"",""stims/images/alpaca.png"",""stims/images/antelope.png"",""stims/images/jaguar.png"",""stims/images/pangolin.png"",""stims/images/tiger.png"",""stims/images/tarsier.png"",""stims/images/dog.png""]",tarsier,tarsier,NA,unfamiliar,pretest,3,stims/audio/find_tarsier.wav,1,stims/images/alpaca.png,0,NA,NA,NA,NA,NA,NA,NA,NA,NA,NA,NA,NA,NA,NA,NA,NA,NA,NA,NA,NA,NA,NA,NA,NA,NA,NA,unfamiliar,tarsier.jpeg,Wikimedia,y,,NA,NA,,,y,NA,NA,,14.22,NA,NA,NA,NA,NA,NA,NA,NA,NA,NA,NA,NA,NA,NA,NA
coact-test,16,49249,0.0-16.0,p004,3,2,NA,NA,NA,NA,NA,53385.296,NA,NA,"[""stims/images/pangolin.png"",""stims/images/dog.png"",""stims/images/koala.png"",""stims/images/alpaca.png"",""stims/images/jaguar.png"",""stims/images/tiger.png"",""stims/images/antelope.png"",""stims/images/tarsier.png""]",alpaca,alpaca,NA,somewhat unfamiliar,pretest,3,stims/audio/find_alpaca.wav,3,stims/images/alpaca.png,1,NA,NA,NA,NA,NA,NA,NA,NA,NA,NA,NA,NA,NA,NA,NA,NA,NA,NA,NA,NA,NA,NA,NA,NA,NA,NA,somewhat_unfamiliar,alpaca.jpg,dimy,y,,10.81,12,,,y,NA,NA,,10.81,NA,NA,NA,NA,NA,NA,NA,NA,NA,NA,NA,NA,NA,NA,NA
coact-test,18,54670,0.0-18.0,p004,3,2,NA,NA,NA,NA,NA,58799.69600000001,NA,NA,"[""stims/images/dog.png"",""stims/images/tarsier.png"",""stims/images/alpaca.png"",""stims/images/koala.png"",""stims/images/tiger.png"",""stims/images/antelope.png"",""stims/images/pangolin.png"",""stims/images/jaguar.png""]",jaguar,jaguar,NA,somewhat familiar,pretest,3,stims/audio/find_jaguar.wav,7,stims/images/jaguar.png,1,NA,NA,NA,NA,NA,NA,NA,NA,NA,NA,NA,NA,NA,NA,NA,NA,NA,NA,NA,NA,NA,NA,NA,NA,NA,NA,somewhat_familiar,jaguar.png,BOSS,n,,7.78,4,,,y,NA,NA,,7.78,NA,NA,NA,NA,NA,NA,NA,NA,NA,NA,NA,NA,NA,NA,NA
coact-test,20,60289,0.0-20.0,p004,3,2,NA,NA,NA,NA,NA,64413.74933333334,NA,NA,"[""stims/images/tarsier.png"",""stims/images/tiger.png"",""stims/images/pangolin.png"",""stims/images/dog.png"",""stims/images/antelope.png"",""stims/images/koala.png"",""stims/images/jaguar.png"",""stims/images/alpaca.png""]",tiger,tiger,NA,familiar,pretest,3,stims/audio/find_tiger.wav,6,stims/images/jaguar.png,0,NA,NA,NA,NA,NA,NA,NA,NA,NA,NA,NA,NA,NA,NA,NA,NA,NA,NA,NA,NA,NA,NA,NA,NA,NA,NA,familiar,tiger.png,BOSS,n,,4,2,,,y,NA,NA,,4,NA,NA,NA,NA,NA,NA,NA,NA,NA,NA,NA,NA,NA,NA,NA
coact-test,22,66219,0.0-22.0,p004,3,2,NA,NA,NA,NA,NA,70336.07466666667,NA,NA,"[""stims/images/alpaca.png"",""stims/images/tiger.png"",""stims/images/koala.png"",""stims/images/dog.png"",""stims/images/jaguar.png"",""stims/images/tarsier.png"",""stims/images/pangolin.png"",""stims/images/antelope.png""]",dog,dog,NA,familiar,pretest,3,stims/audio/wheres_dog.wav,3,stims/images/dog.png,1,NA,NA,NA,NA,NA,NA,NA,NA,NA,NA,NA,NA,NA,NA,NA,NA,NA,NA,NA,NA,NA,NA,NA,NA,NA,NA,familiar,dog.png,CATegories,n,,2.8,2,,,y,NA,NA,,2.8,NA,NA,NA,NA,NA,NA,NA,NA,NA,NA,NA,NA,NA,NA,NA
coact-grid,24,89323,0.0-24.0,p004,3,2,NA,NA,NA,NA,NA,21478.000000000015,NA,NA,"[""stims/images/frog.png"",""stims/images/cow.png"",""stims/images/horse.png"",""stims/images/duck.png"",""stims/images/cat.png"",""stims/images/butterfly.png"",""stims/images/wolf.png"",""stims/images/squirrel.png""]",NA,NA,NA,NA,NA,familiar,NA,NA,NA,NA,NA,"[2,0]","[""stims/images/horse.png"",""stims/images/frog.png""]","[""horse"",""frog""]","[""stims/audio/its_horse.wav"",""stims/audio/its_frog.wav""]",left,"[""stims/images/horse.png"",""stims/images/frog.png""]","[""stims/audio/its_horse.wav"",""stims/audio/its_frog.wav""]","[""horse"",""frog""]",active,0,NA,NA,NA,NA,NA,NA,NA,NA,NA,NA,NA,NA,NA,NA,NA,NA,NA,NA,NA,NA,NA,NA,NA,NA,NA,NA,NA,NA,NA,NA,NA,NA,NA,NA,NA,NA,NA,NA,NA,NA,NA,NA,NA,NA
coact-grid-choice,25,91637,0.0-25.0,p004,3,2,NA,NA,NA,NA,NA,2312,NA,NA,"[""stims/images/frog.png"",""stims/images/cow.png"",""stims/images/horse.png"",""stims/images/duck.png"",""stims/images/cat.png"",""stims/images/butterfly.png"",""stims/images/wolf.png"",""stims/images/squirrel.png""]",NA,NA,NA,NA,NA,familiar,NA,NA,stims/images/horse.png,NA,NA,NA,NA,NA,NA,left,"[""stims/images/horse.png"",""stims/images/frog.png""]","[""stims/audio/its_horse.wav"",""stims/audio/its_frog.wav""]","[""horse"",""frog""]",passive,0,0,stims/audio/its_horse.wav,"[""stims/images/horse.png"",""stims/images/frog.png""]",NA,NA,NA,NA,NA,NA,NA,NA,NA,NA,NA,NA,NA,NA,NA,NA,NA,NA,NA,NA,NA,NA,NA,NA,NA,NA,horse,familiar,horse.png,BOSS,n,,4.15,2,,,fam,NA,0,unfamiliar,4.15
coact-grid-choice-audio,26,94650,0.0-26.0,p004,3,2,NA,NA,NA,NA,NA,3003,NA,NA,"[""stims/images/frog.png"",""stims/images/cow.png"",""stims/images/horse.png"",""stims/images/duck.png"",""stims/images/cat.png"",""stims/images/butterfly.png"",""stims/images/wolf.png"",""stims/images/squirrel.png""]",NA,NA,NA,NA,NA,familiar,NA,NA,stims/images/horse.png,NA,NA,NA,NA,NA,NA,left,NA,NA,NA,passive,0,NA,stims/audio/its_horse.wav,"[""stims/images/horse.png"",""stims/images/frog.png""]",NA,NA,NA,NA,NA,NA,NA,NA,NA,NA,NA,NA,NA,NA,NA,NA,NA,NA,NA,NA,NA,NA,NA,NA,NA,NA,horse,familiar,horse.png,BOSS,n,,4.15,2,,,fam,NA,0,unfamiliar,4.15
coact-grid,27,100354,0.0-27.0,p004,3,2,NA,NA,NA,NA,NA,4395,NA,NA,"[""stims/images/jaguar.png"",""stims/images/alpaca.png"",""stims/images/tarsier.png"",""stims/images/antelope.png"",""stims/images/tiger.png"",""stims/images/pangolin.png"",""stims/images/koala.png"",""stims/images/dog.png""]",NA,NA,NA,NA,NA,3,NA,NA,NA,NA,NA,"[1,2]","[""stims/images/alpaca.png"",""stims/images/tarsier.png""]","[""alpaca"",""tarsier""]","[""stims/audio/its_alpaca.wav"",""stims/audio/its_tarsier.wav""]",left,"[""stims/images/alpaca.png"",""stims/images/tarsier.png""]","[""stims/audio/its_alpaca.wav"",""stims/audio/its_tarsier.wav""]","[""alpaca"",""tarsier""]",active,0,NA,NA,NA,NA,NA,NA,NA,NA,NA,NA,NA,NA,NA,NA,NA,NA,NA,NA,NA,NA,NA,NA,NA,NA,NA,NA,NA,NA,NA,NA,NA,NA,NA,NA,NA,NA,NA,NA,NA,NA,NA,NA,NA,NA
coact-grid-choice,28,102193,0.0-28.0,p004,3,2,NA,NA,NA,NA,NA,1837,NA,NA,"[""stims/images/jaguar.png"",""stims/images/alpaca.png"",""stims/images/tarsier.png"",""stims/images/antelope.png"",""stims/images/tiger.png"",""stims/images/pangolin.png"",""stims/images/koala.png"",""stims/images/dog.png""]",NA,NA,NA,NA,NA,3,NA,NA,stims/images/tarsier.png,NA,NA,NA,NA,NA,NA,left,"[""stims/images/alpaca.png"",""stims/images/tarsier.png""]","[""stims/audio/its_alpaca.wav"",""stims/audio/its_tarsier.wav""]","[""alpaca"",""tarsier""]",passive,0,1,stims/audio/its_tarsier.wav,"[""stims/images/alpaca.png"",""stims/images/tarsier.png""]",NA,NA,NA,NA,NA,NA,NA,NA,NA,NA,NA,NA,NA,NA,NA,NA,NA,NA,NA,NA,NA,NA,NA,NA,NA,NA,tarsier,unfamiliar,tarsier.jpeg,Wikimedia,y,,NA,NA,,,y,NA,NA,,14.22
coact-grid-choice-audio,29,105202,0.0-29.0,p004,3,2,NA,NA,NA,NA,NA,3003,NA,NA,"[""stims/images/jaguar.png"",""stims/images/alpaca.png"",""stims/images/tarsier.png"",""stims/images/antelope.png"",""stims/images/tiger.png"",""stims/images/pangolin.png"",""stims/images/koala.png"",""stims/images/dog.png""]",NA,NA,NA,NA,NA,3,NA,NA,stims/images/tarsier.png,NA,NA,NA,NA,NA,NA,left,NA,NA,NA,passive,0,NA,stims/audio/its_tarsier.wav,"[""stims/images/alpaca.png"",""stims/images/tarsier.png""]",NA,NA,NA,NA,NA,NA,NA,NA,NA,NA,NA,NA,NA,NA,NA,NA,NA,NA,NA,NA,NA,NA,NA,NA,NA,NA,tarsier,unfamiliar,tarsier.jpeg,Wikimedia,y,,NA,NA,,,y,NA,NA,,14.22
coact-grid,30,109993,0.0-30.0,p004,3,2,NA,NA,NA,NA,NA,3483,NA,NA,"[""stims/images/dog.png"",""stims/images/tiger.png"",""stims/images/koala.png"",""stims/images/alpaca.png"",""stims/images/jaguar.png"",""stims/images/pangolin.png"",""stims/images/antelope.png"",""stims/images/tarsier.png""]",NA,NA,NA,NA,NA,3,NA,NA,NA,NA,NA,"[3,5]","[""stims/images/alpaca.png"",""stims/images/pangolin.png""]","[""alpaca"",""pangolin""]","[""stims/audio/its_alpaca.wav"",""stims/audio/its_pangolin.wav""]",right,"[""stims/images/pangolin.png"",""stims/images/alpaca.png""]","[""stims/audio/its_pangolin.wav"",""stims/audio/its_alpaca.wav""]","[""pangolin"",""alpaca""]",active,1,NA,NA,NA,NA,NA,NA,NA,NA,NA,NA,NA,NA,NA,NA,NA,NA,NA,NA,NA,NA,NA,NA,NA,NA,NA,NA,NA,NA,NA,NA,NA,NA,NA,NA,NA,NA,NA,NA,NA,NA,NA,NA,NA,NA
coact-grid-choice,31,111149,0.0-31.0,p004,3,2,NA,NA,NA,NA,NA,1154,NA,NA,"[""stims/images/dog.png"",""stims/images/tiger.png"",""stims/images/koala.png"",""stims/images/alpaca.png"",""stims/images/jaguar.png"",""stims/images/pangolin.png"",""stims/images/antelope.png"",""stims/images/tarsier.png""]",NA,NA,NA,NA,NA,3,NA,NA,stims/images/pangolin.png,NA,NA,NA,NA,NA,NA,right,"[""stims/images/pangolin.png"",""stims/images/alpaca.png""]","[""stims/audio/its_pangolin.wav"",""stims/audio/its_alpaca.wav""]","[""pangolin"",""alpaca""]",passive,1,1,stims/audio/its_alpaca.wav,"[""stims/images/alpaca.png"",""stims/images/pangolin.png""]",NA,NA,NA,NA,NA,NA,NA,NA,NA,NA,NA,NA,NA,NA,NA,NA,NA,NA,NA,NA,NA,NA,NA,NA,NA,NA,alpaca,somewhat_unfamiliar,alpaca.jpg,dimy,y,,10.81,12,,,y,NA,NA,,10.81
coact-grid-choice-audio,32,114159,0.0-32.0,p004,3,2,NA,NA,NA,NA,NA,3000,NA,NA,"[""stims/images/dog.png"",""stims/images/tiger.png"",""stims/images/koala.png"",""stims/images/alpaca.png"",""stims/images/jaguar.png"",""stims/images/pangolin.png"",""stims/images/antelope.png"",""stims/images/tarsier.png""]",NA,NA,NA,NA,NA,3,NA,NA,stims/images/pangolin.png,NA,NA,NA,NA,NA,NA,right,NA,NA,NA,passive,1,NA,stims/audio/its_alpaca.wav,"[""stims/images/alpaca.png"",""stims/images/pangolin.png""]",NA,NA,NA,NA,NA,NA,NA,NA,NA,NA,NA,NA,NA,NA,NA,NA,NA,NA,NA,NA,NA,NA,NA,NA,NA,NA,alpaca,somewhat_unfamiliar,alpaca.jpg,dimy,y,,10.81,12,,,y,NA,NA,,10.81
coact-grid,33,119566,0.0-33.0,p004,3,2,NA,NA,NA,NA,NA,4097.999999999985,NA,NA,"[""stims/images/koala.png"",""stims/images/pangolin.png"",""stims/images/alpaca.png"",""stims/images/jaguar.png"",""stims/images/dog.png"",""stims/images/antelope.png"",""stims/images/tarsier.png"",""stims/images/tiger.png""]",NA,NA,NA,NA,NA,3,NA,NA,NA,NA,NA,"[1,5]","[""stims/images/pangolin.png"",""stims/images/antelope.png""]","[""pangolin"",""antelope""]","[""stims/audio/thats_pangolin.wav"",""stims/audio/thats_antelope.wav""]",right,"[""stims/images/antelope.png"",""stims/images/pangolin.png""]","[""stims/audio/thats_antelope.wav"",""stims/audio/thats_pangolin.wav""]","[""antelope"",""pangolin""]",active,2,NA,NA,NA,NA,NA,NA,NA,NA,NA,NA,NA,NA,NA,NA,NA,NA,NA,NA,NA,NA,NA,NA,NA,NA,NA,NA,NA,NA,NA,NA,NA,NA,NA,NA,NA,NA,NA,NA,NA,NA,NA,NA,NA,NA
coact-grid-choice,34,120622,0.0-34.0,p004,3,2,NA,NA,NA,NA,NA,1054,NA,NA,"[""stims/images/koala.png"",""stims/images/pangolin.png"",""stims/images/alpaca.png"",""stims/images/jaguar.png"",""stims/images/dog.png"",""stims/images/antelope.png"",""stims/images/tarsier.png"",""stims/images/tiger.png""]",NA,NA,NA,NA,NA,3,NA,NA,stims/images/antelope.png,NA,NA,NA,NA,NA,NA,right,"[""stims/images/antelope.png"",""stims/images/pangolin.png""]","[""stims/audio/thats_antelope.wav"",""stims/audio/thats_pangolin.wav""]","[""antelope"",""pangolin""]",passive,2,1,stims/audio/thats_pangolin.wav,"[""stims/images/pangolin.png"",""stims/images/antelope.png""]",NA,NA,NA,NA,NA,NA,NA,NA,NA,NA,NA,NA,NA,NA,NA,NA,NA,NA,NA,NA,NA,NA,NA,NA,NA,NA,pangolin,unfamiliar,pangolin.jpg,dimy,n,,NA,13,,,y,NA,NA,,14.22
coact-grid-choice-audio,35,123631,0.0-35.0,p004,3,2,NA,NA,NA,NA,NA,3003,NA,NA,"[""stims/images/koala.png"",""stims/images/pangolin.png"",""stims/images/alpaca.png"",""stims/images/jaguar.png"",""stims/images/dog.png"",""stims/images/antelope.png"",""stims/images/tarsier.png"",""stims/images/tiger.png""]",NA,NA,NA,NA,NA,3,NA,NA,stims/images/antelope.png,NA,NA,NA,NA,NA,NA,right,NA,NA,NA,passive,2,NA,stims/audio/thats_pangolin.wav,"[""stims/images/pangolin.png"",""stims/images/antelope.png""]",NA,NA,NA,NA,NA,NA,NA,NA,NA,NA,NA,NA,NA,NA,NA,NA,NA,NA,NA,NA,NA,NA,NA,NA,NA,NA,pangolin,unfamiliar,pangolin.jpg,dimy,n,,NA,13,,,y,NA,NA,,14.22
coact-grid,36,129516,0.0-36.0,p004,3,2,NA,NA,NA,NA,NA,4575.999999999985,NA,NA,"[""stims/images/dog.png"",""stims/images/tiger.png"",""stims/images/tarsier.png"",""stims/images/antelope.png"",""stims/images/pangolin.png"",""stims/images/alpaca.png"",""stims/images/jaguar.png"",""stims/images/koala.png""]",NA,NA,NA,NA,NA,3,NA,NA,NA,NA,NA,"[3,7]","[""stims/images/antelope.png"",""stims/images/koala.png""]","[""antelope"",""koala""]","[""stims/audio/thats_antelope.wav"",""stims/audio/thats_koala.wav""]",left,"[""stims/images/antelope.png"",""stims/images/koala.png""]","[""stims/audio/thats_antelope.wav"",""stims/audio/thats_koala.wav""]","[""antelope"",""koala""]",active,3,NA,NA,NA,NA,NA,NA,NA,NA,NA,NA,NA,NA,NA,NA,NA,NA,NA,NA,NA,NA,NA,NA,NA,NA,NA,NA,NA,NA,NA,NA,NA,NA,NA,NA,NA,NA,NA,NA,NA,NA,NA,NA,NA,NA
coact-grid-choice,37,130612,0.0-37.0,p004,3,2,NA,NA,NA,NA,NA,1094,NA,NA,"[""stims/images/dog.png"",""stims/images/tiger.png"",""stims/images/tarsier.png"",""stims/images/antelope.png"",""stims/images/pangolin.png"",""stims/images/alpaca.png"",""stims/images/jaguar.png"",""stims/images/koala.png""]",NA,NA,NA,NA,NA,3,NA,NA,stims/images/koala.png,NA,NA,NA,NA,NA,NA,left,"[""stims/images/antelope.png"",""stims/images/koala.png""]","[""stims/audio/thats_antelope.wav"",""stims/audio/thats_koala.wav""]","[""antelope"",""koala""]",passive,3,1,stims/audio/thats_koala.wav,"[""stims/images/antelope.png"",""stims/images/koala.png""]",NA,NA,NA,NA,NA,NA,NA,NA,NA,NA,NA,NA,NA,NA,NA,NA,NA,NA,NA,NA,NA,NA,NA,NA,NA,NA,koala,somewhat_familiar,koala.jpg,dimy,y,,6,10,,,y,NA,NA,,6
coact-grid-choice-audio,38,133624,0.0-38.0,p004,3,2,NA,NA,NA,NA,NA,3003,NA,NA,"[""stims/images/dog.png"",""stims/images/tiger.png"",""stims/images/tarsier.png"",""stims/images/antelope.png"",""stims/images/pangolin.png"",""stims/images/alpaca.png"",""stims/images/jaguar.png"",""stims/images/koala.png""]",NA,NA,NA,NA,NA,3,NA,NA,stims/images/koala.png,NA,NA,NA,NA,NA,NA,left,NA,NA,NA,passive,3,NA,stims/audio/thats_koala.wav,"[""stims/images/antelope.png"",""stims/images/koala.png""]",NA,NA,NA,NA,NA,NA,NA,NA,NA,NA,NA,NA,NA,NA,NA,NA,NA,NA,NA,NA,NA,NA,NA,NA,NA,NA,koala,somewhat_familiar,koala.jpg,dimy,y,,6,10,,,y,NA,NA,,6
coact-grid,39,140149,0.0-39.0,p004,3,2,NA,NA,NA,NA,NA,5218,NA,NA,"[""stims/images/dog.png"",""stims/images/tarsier.png"",""stims/images/alpaca.png"",""stims/images/pangolin.png"",""stims/images/jaguar.png"",""stims/images/antelope.png"",""stims/images/koala.png"",""stims/images/tiger.png""]",NA,NA,NA,NA,NA,3,NA,NA,NA,NA,NA,"[5,7]","[""stims/images/antelope.png"",""stims/images/tiger.png""]","[""antelope"",""tiger""]","[""stims/audio/thats_antelope.wav"",""stims/audio/thats_tiger.wav""]",left,"[""stims/images/antelope.png"",""stims/images/tiger.png""]","[""stims/audio/thats_antelope.wav"",""stims/audio/thats_tiger.wav""]","[""antelope"",""tiger""]",active,4,NA,NA,NA,NA,NA,NA,NA,NA,NA,NA,NA,NA,NA,NA,NA,NA,NA,NA,NA,NA,NA,NA,NA,NA,NA,NA,NA,NA,NA,NA,NA,NA,NA,NA,NA,NA,NA,NA,NA,NA,NA,NA,NA,NA
coact-grid-choice,40,142904,0.0-40.0,p004,3,2,NA,NA,NA,NA,NA,2753,NA,NA,"[""stims/images/dog.png"",""stims/images/tarsier.png"",""stims/images/alpaca.png"",""stims/images/pangolin.png"",""stims/images/jaguar.png"",""stims/images/antelope.png"",""stims/images/koala.png"",""stims/images/tiger.png""]",NA,NA,NA,NA,NA,3,NA,NA,stims/images/tiger.png,NA,NA,NA,NA,NA,NA,left,"[""stims/images/antelope.png"",""stims/images/tiger.png""]","[""stims/audio/thats_antelope.wav"",""stims/audio/thats_tiger.wav""]","[""antelope"",""tiger""]",passive,4,1,stims/audio/thats_tiger.wav,"[""stims/images/antelope.png"",""stims/images/tiger.png""]",NA,NA,NA,NA,NA,NA,NA,NA,NA,NA,NA,NA,NA,NA,NA,NA,NA,NA,NA,NA,NA,NA,NA,NA,NA,NA,tiger,familiar,tiger.png,BOSS,n,,4,2,,,y,NA,NA,,4
coact-grid-choice-audio,41,145913,0.0-41.0,p004,3,2,NA,NA,NA,NA,NA,3000,NA,NA,"[""stims/images/dog.png"",""stims/images/tarsier.png"",""stims/images/alpaca.png"",""stims/images/pangolin.png"",""stims/images/jaguar.png"",""stims/images/antelope.png"",""stims/images/koala.png"",""stims/images/tiger.png""]",NA,NA,NA,NA,NA,3,NA,NA,stims/images/tiger.png,NA,NA,NA,NA,NA,NA,left,NA,NA,NA,passive,4,NA,stims/audio/thats_tiger.wav,"[""stims/images/antelope.png"",""stims/images/tiger.png""]",NA,NA,NA,NA,NA,NA,NA,NA,NA,NA,NA,NA,NA,NA,NA,NA,NA,NA,NA,NA,NA,NA,NA,NA,NA,NA,tiger,familiar,tiger.png,BOSS,n,,4,2,,,y,NA,NA,,4
coact-grid,42,153188,0.0-42.0,p004,3,2,NA,NA,NA,NA,NA,5967,NA,NA,"[""stims/images/koala.png"",""stims/images/jaguar.png"",""stims/images/tiger.png"",""stims/images/tarsier.png"",""stims/images/pangolin.png"",""stims/images/alpaca.png"",""stims/images/antelope.png"",""stims/images/dog.png""]",NA,NA,NA,NA,NA,3,NA,NA,NA,NA,NA,"[6,1]","[""stims/images/antelope.png"",""stims/images/jaguar.png""]","[""antelope"",""jaguar""]","[""stims/audio/its_antelope.wav"",""stims/audio/its_jaguar.wav""]",right,"[""stims/images/jaguar.png"",""stims/images/antelope.png""]","[""stims/audio/its_jaguar.wav"",""stims/audio/its_antelope.wav""]","[""jaguar"",""antelope""]",active,5,NA,NA,NA,NA,NA,NA,NA,NA,NA,NA,NA,NA,NA,NA,NA,NA,NA,NA,NA,NA,NA,NA,NA,NA,NA,NA,NA,NA,NA,NA,NA,NA,NA,NA,NA,NA,NA,NA,NA,NA,NA,NA,NA,NA
coact-grid-choice,43,154111,0.0-43.0,p004,3,2,NA,NA,NA,NA,NA,921.0000000000291,NA,NA,"[""stims/images/koala.png"",""stims/images/jaguar.png"",""stims/images/tiger.png"",""stims/images/tarsier.png"",""stims/images/pangolin.png"",""stims/images/alpaca.png"",""stims/images/antelope.png"",""stims/images/dog.png""]",NA,NA,NA,NA,NA,3,NA,NA,stims/images/jaguar.png,NA,NA,NA,NA,NA,NA,right,"[""stims/images/jaguar.png"",""stims/images/antelope.png""]","[""stims/audio/its_jaguar.wav"",""stims/audio/its_antelope.wav""]","[""jaguar"",""antelope""]",passive,5,1,stims/audio/its_antelope.wav,"[""stims/images/antelope.png"",""stims/images/jaguar.png""]",NA,NA,NA,NA,NA,NA,NA,NA,NA,NA,NA,NA,NA,NA,NA,NA,NA,NA,NA,NA,NA,NA,NA,NA,NA,NA,antelope,somewhat_unfamiliar,antelope.png,BOSS,n,,8.39,4,,,y,NA,NA,,8.39
coact-grid-choice-audio,44,157121,0.0-44.0,p004,3,2,NA,NA,NA,NA,NA,3003,NA,NA,"[""stims/images/koala.png"",""stims/images/jaguar.png"",""stims/images/tiger.png"",""stims/images/tarsier.png"",""stims/images/pangolin.png"",""stims/images/alpaca.png"",""stims/images/antelope.png"",""stims/images/dog.png""]",NA,NA,NA,NA,NA,3,NA,NA,stims/images/jaguar.png,NA,NA,NA,NA,NA,NA,right,NA,NA,NA,passive,5,NA,stims/audio/its_antelope.wav,"[""stims/images/antelope.png"",""stims/images/jaguar.png""]",NA,NA,NA,NA,NA,NA,NA,NA,NA,NA,NA,NA,NA,NA,NA,NA,NA,NA,NA,NA,NA,NA,NA,NA,NA,NA,antelope,somewhat_unfamiliar,antelope.png,BOSS,n,,8.39,4,,,y,NA,NA,,8.39
coact-test,47,171245,0.0-47.0,p004,3,2,NA,NA,NA,NA,NA,175253.45066666667,NA,NA,"[""stims/images/squirrel.png"",""stims/images/cat.png"",""stims/images/horse.png"",""stims/images/butterfly.png"",""stims/images/wolf.png"",""stims/images/duck.png"",""stims/images/cow.png"",""stims/images/frog.png""]",frog,frog,NA,familiar,practice_posttest,familiar,stims/audio/wheres_frog.wav,7,stims/images/frog.png,1,NA,NA,NA,NA,NA,NA,NA,NA,NA,NA,NA,NA,NA,NA,NA,NA,NA,NA,NA,NA,NA,NA,NA,NA,NA,NA,familiar,frog.png,CARE,n,,4.32,2,,,fam,NA,NA,,4.32,NA,NA,NA,NA,NA,NA,NA,NA,NA,NA,NA,NA,NA,NA,NA
coact-test,49,177198,0.0-49.0,p004,3,2,NA,NA,NA,NA,NA,181200.13066666666,NA,NA,"[""stims/images/butterfly.png"",""stims/images/wolf.png"",""stims/images/duck.png"",""stims/images/cat.png"",""stims/images/frog.png"",""stims/images/squirrel.png"",""stims/images/horse.png"",""stims/images/cow.png""]",duck,duck,NA,familiar,practice_posttest,familiar,stims/audio/find_duck.wav,2,stims/images/duck.png,1,NA,NA,NA,NA,NA,NA,NA,NA,NA,NA,NA,NA,NA,NA,NA,NA,NA,NA,NA,NA,NA,NA,NA,NA,NA,NA,familiar,duck.png,MEM,n,,3.5,2,,,fam,NA,8,familiar_exp,3.5,NA,NA,NA,NA,NA,NA,NA,NA,NA,NA,NA,NA,NA,NA,NA
coact-test,51,181503,0.0-51.0,p004,3,2,NA,NA,NA,NA,NA,185501.73866666667,NA,NA,"[""stims/images/pangolin.png"",""stims/images/antelope.png"",""stims/images/tarsier.png"",""stims/images/jaguar.png"",""stims/images/alpaca.png"",""stims/images/dog.png"",""stims/images/koala.png"",""stims/images/tiger.png""]",alpaca,alpaca,NA,somewhat unfamiliar,posttest,3,stims/audio/wheres_alpaca.wav,4,stims/images/alpaca.png,1,NA,NA,NA,NA,NA,NA,NA,NA,NA,NA,NA,NA,NA,NA,NA,NA,NA,NA,NA,NA,NA,NA,NA,NA,NA,NA,somewhat_unfamiliar,alpaca.jpg,dimy,y,,10.81,12,,,y,NA,NA,,10.81,NA,NA,NA,NA,NA,NA,NA,NA,NA,NA,NA,NA,NA,NA,NA
coact-test,53,187204,0.0-53.0,p004,3,2,NA,NA,NA,NA,NA,191197.65866666666,NA,NA,"[""stims/images/dog.png"",""stims/images/antelope.png"",""stims/images/alpaca.png"",""stims/images/tiger.png"",""stims/images/jaguar.png"",""stims/images/pangolin.png"",""stims/images/tarsier.png"",""stims/images/koala.png""]",tiger,tiger,NA,familiar,posttest,3,stims/audio/find_tiger.wav,3,stims/images/tiger.png,1,NA,NA,NA,NA,NA,NA,NA,NA,NA,NA,NA,NA,NA,NA,NA,NA,NA,NA,NA,NA,NA,NA,NA,NA,NA,NA,familiar,tiger.png,BOSS,n,,4,2,,,y,NA,NA,,4,NA,NA,NA,NA,NA,NA,NA,NA,NA,NA,NA,NA,NA,NA,NA
coact-test,55,191185,0.0-55.0,p004,3,2,NA,NA,NA,NA,NA,195172.104,NA,NA,"[""stims/images/dog.png"",""stims/images/tarsier.png"",""stims/images/tiger.png"",""stims/images/alpaca.png"",""stims/images/pangolin.png"",""stims/images/jaguar.png"",""stims/images/antelope.png"",""stims/images/koala.png""]",koala,koala,NA,somewhat familiar,posttest,3,stims/audio/wheres_koala.wav,7,stims/images/koala.png,1,NA,NA,NA,NA,NA,NA,NA,NA,NA,NA,NA,NA,NA,NA,NA,NA,NA,NA,NA,NA,NA,NA,NA,NA,NA,NA,somewhat_familiar,koala.jpg,dimy,y,,6,10,,,y,NA,NA,,6,NA,NA,NA,NA,NA,NA,NA,NA,NA,NA,NA,NA,NA,NA,NA
coact-test,57,194979,0.0-57.0,p004,3,2,NA,NA,NA,NA,NA,198962.2,NA,NA,"[""stims/images/tiger.png"",""stims/images/pangolin.png"",""stims/images/antelope.png"",""stims/images/dog.png"",""stims/images/tarsier.png"",""stims/images/jaguar.png"",""stims/images/alpaca.png"",""stims/images/koala.png""]",dog,dog,NA,familiar,posttest,3,stims/audio/find_dog.wav,3,stims/images/dog.png,1,NA,NA,NA,NA,NA,NA,NA,NA,NA,NA,NA,NA,NA,NA,NA,NA,NA,NA,NA,NA,NA,NA,NA,NA,NA,NA,familiar,dog.png,CATegories,n,,2.8,2,,,y,NA,NA,,2.8,NA,NA,NA,NA,NA,NA,NA,NA,NA,NA,NA,NA,NA,NA,NA
coact-test,59,199240,0.0-59.0,p004,3,2,NA,NA,NA,NA,NA,203219.576,NA,NA,"[""stims/images/dog.png"",""stims/images/antelope.png"",""stims/images/koala.png"",""stims/images/jaguar.png"",""stims/images/pangolin.png"",""stims/images/alpaca.png"",""stims/images/tiger.png"",""stims/images/tarsier.png""]",pangolin,pangolin,NA,unfamiliar,posttest,3,stims/audio/wheres_pangolin.wav,4,stims/images/pangolin.png,1,NA,NA,NA,NA,NA,NA,NA,NA,NA,NA,NA,NA,NA,NA,NA,NA,NA,NA,NA,NA,NA,NA,NA,NA,NA,NA,unfamiliar,pangolin.jpg,dimy,n,,NA,13,,,y,NA,NA,,14.22,NA,NA,NA,NA,NA,NA,NA,NA,NA,NA,NA,NA,NA,NA,NA
coact-test,61,203779,0.0-61.0,p004,3,2,NA,NA,NA,NA,NA,207755.184,NA,NA,"[""stims/images/antelope.png"",""stims/images/jaguar.png"",""stims/images/dog.png"",""stims/images/koala.png"",""stims/images/pangolin.png"",""stims/images/alpaca.png"",""stims/images/tiger.png"",""stims/images/tarsier.png""]",antelope,antelope,NA,somewhat unfamiliar,posttest,3,stims/audio/find_antelope.wav,0,stims/images/antelope.png,1,NA,NA,NA,NA,NA,NA,NA,NA,NA,NA,NA,NA,NA,NA,NA,NA,NA,NA,NA,NA,NA,NA,NA,NA,NA,NA,somewhat_unfamiliar,antelope.png,BOSS,n,,8.39,4,,,y,NA,NA,,8.39,NA,NA,NA,NA,NA,NA,NA,NA,NA,NA,NA,NA,NA,NA,NA
coact-test,63,207070,0.0-63.0,p004,3,2,NA,NA,NA,NA,NA,211040.98666666666,NA,NA,"[""stims/images/jaguar.png"",""stims/images/tarsier.png"",""stims/images/pangolin.png"",""stims/images/dog.png"",""stims/images/koala.png"",""stims/images/alpaca.png"",""stims/images/antelope.png"",""stims/images/tiger.png""]",jaguar,jaguar,NA,somewhat familiar,posttest,3,stims/audio/find_jaguar.wav,0,stims/images/jaguar.png,1,NA,NA,NA,NA,NA,NA,NA,NA,NA,NA,NA,NA,NA,NA,NA,NA,NA,NA,NA,NA,NA,NA,NA,NA,NA,NA,somewhat_familiar,jaguar.png,BOSS,n,,7.78,4,,,y,NA,NA,,7.78,NA,NA,NA,NA,NA,NA,NA,NA,NA,NA,NA,NA,NA,NA,NA
coact-test,65,210331,0.0-65.0,p004,3,2,NA,NA,NA,NA,NA,214298.95466666666,NA,NA,"[""stims/images/koala.png"",""stims/images/pangolin.png"",""stims/images/jaguar.png"",""stims/images/tiger.png"",""stims/images/dog.png"",""stims/images/antelope.png"",""stims/images/tarsier.png"",""stims/images/alpaca.png""]",tarsier,tarsier,NA,unfamiliar,posttest,3,stims/audio/wheres_tarsier.wav,6,stims/images/tarsier.png,1,NA,NA,NA,NA,NA,NA,NA,NA,NA,NA,NA,NA,NA,NA,NA,NA,NA,NA,NA,NA,NA,NA,NA,NA,NA,NA,unfamiliar,tarsier.jpeg,Wikimedia,y,,NA,NA,,,y,NA,NA,,14.22,NA,NA,NA,NA,NA,NA,NA,NA,NA,NA,NA,NA,NA,NA,NA
coact-test,4,13907,0.0-4.0,p004,4,3,NA,NA,NA,NA,NA,18093.453333333335,NA,NA,"[""stims/images/cow.png"",""stims/images/cat.png"",""stims/images/frog.png"",""stims/images/duck.png"",""stims/images/squirrel.png"",""stims/images/butterfly.png"",""stims/images/horse.png"",""stims/images/wolf.png""]",cat,cat,NA,familiar,practice_pretest,familiar,stims/audio/wheres_cat.wav,1,stims/images/cat.png,1,NA,NA,NA,NA,NA,NA,NA,NA,NA,NA,NA,NA,NA,NA,NA,NA,NA,NA,NA,NA,NA,NA,NA,NA,NA,NA,familiar,cat.png,CATegories,n,,3.68,2,,,fam,NA,11,somewhat familiar,3.68,NA,NA,NA,NA,NA,NA,NA,NA,NA,NA,NA,NA,NA,NA,NA
coact-test,6,18329,0.0-6.0,p004,4,3,NA,NA,NA,NA,NA,22511.458666666666,NA,NA,"[""stims/images/cow.png"",""stims/images/butterfly.png"",""stims/images/cat.png"",""stims/images/wolf.png"",""stims/images/duck.png"",""stims/images/squirrel.png"",""stims/images/frog.png"",""stims/images/horse.png""]",horse,horse,NA,familiar,practice_pretest,familiar,stims/audio/find_horse.wav,7,stims/images/horse.png,1,NA,NA,NA,NA,NA,NA,NA,NA,NA,NA,NA,NA,NA,NA,NA,NA,NA,NA,NA,NA,NA,NA,NA,NA,NA,NA,familiar,horse.png,BOSS,n,,4.15,2,,,fam,NA,0,unfamiliar,4.15,NA,NA,NA,NA,NA,NA,NA,NA,NA,NA,NA,NA,NA,NA,NA
coact-test,8,23686,0.0-8.0,p004,4,3,NA,NA,NA,NA,NA,27863.832,NA,NA,"[""stims/images/pig.png"",""stims/images/hippopotamus.png"",""stims/images/tapir.png"",""stims/images/lobster.png"",""stims/images/echidna.png"",""stims/images/armadillo.png"",""stims/images/aardvark.png"",""stims/images/turtle.png""]",turtle,turtle,NA,familiar,pretest,4,stims/audio/find_turtle.wav,7,stims/images/turtle.png,1,NA,NA,NA,NA,NA,NA,NA,NA,NA,NA,NA,NA,NA,NA,NA,NA,NA,NA,NA,NA,NA,NA,NA,NA,NA,NA,familiar,turtle.png,BOSS,n,,4.17,2,,,y,NA,NA,,4.17,NA,NA,NA,NA,NA,NA,NA,NA,NA,NA,NA,NA,NA,NA,NA
coact-test,10,33708,0.0-10.0,p004,4,3,NA,NA,NA,NA,NA,37880.52,NA,NA,"[""stims/images/aardvark.png"",""stims/images/turtle.png"",""stims/images/pig.png"",""stims/images/hippopotamus.png"",""stims/images/armadillo.png"",""stims/images/lobster.png"",""stims/images/tapir.png"",""stims/images/echidna.png""]",aardvark,aardvark,NA,somewhat unfamiliar,pretest,4,stims/audio/wheres_aardvark.wav,6,stims/images/tapir.png,0,NA,NA,NA,NA,NA,NA,NA,NA,NA,NA,NA,NA,NA,NA,NA,NA,NA,NA,NA,NA,NA,NA,NA,NA,NA,NA,somewhat_unfamiliar,aardvark.jpg,chen,y,,9.89,14,,,y,NA,NA,,9.89,NA,NA,NA,NA,NA,NA,NA,NA,NA,NA,NA,NA,NA,NA,NA
coact-test,12,37805,0.0-12.0,p004,4,3,NA,NA,NA,NA,NA,41967.210666666666,NA,NA,"[""stims/images/tapir.png"",""stims/images/turtle.png"",""stims/images/armadillo.png"",""stims/images/aardvark.png"",""stims/images/lobster.png"",""stims/images/hippopotamus.png"",""stims/images/echidna.png"",""stims/images/pig.png""]",pig,pig,NA,familiar,pretest,4,stims/audio/wheres_pig.wav,5,stims/images/hippopotamus.png,0,NA,NA,NA,NA,NA,NA,NA,NA,NA,NA,NA,NA,NA,NA,NA,NA,NA,NA,NA,NA,NA,NA,NA,NA,NA,NA,familiar,pig.png,BOSS,n,,3.84,2,,,y,NA,NA,,3.84,NA,NA,NA,NA,NA,NA,NA,NA,NA,NA,NA,NA,NA,NA,NA
coact-test,14,50663,0.0-14.0,p004,4,3,NA,NA,NA,NA,NA,54820.688,NA,NA,"[""stims/images/tapir.png"",""stims/images/turtle.png"",""stims/images/pig.png"",""stims/images/echidna.png"",""stims/images/aardvark.png"",""stims/images/hippopotamus.png"",""stims/images/lobster.png"",""stims/images/armadillo.png""]",armadillo,armadillo,NA,somewhat unfamiliar,pretest,4,stims/audio/find_armadillo.wav,5,stims/images/hippopotamus.png,0,NA,NA,NA,NA,NA,NA,NA,NA,NA,NA,NA,NA,NA,NA,NA,NA,NA,NA,NA,NA,NA,NA,NA,NA,NA,NA,somewhat_unfamiliar,armadillo.jpg,dimy,y,,8.608885,8,,,y,NA,NA,,8.608885,NA,NA,NA,NA,NA,NA,NA,NA,NA,NA,NA,NA,NA,NA,NA
coact-test,16,57435,0.0-16.0,p004,4,3,NA,NA,NA,NA,NA,61579.072,NA,NA,"[""stims/images/hippopotamus.png"",""stims/images/aardvark.png"",""stims/images/tapir.png"",""stims/images/lobster.png"",""stims/images/armadillo.png"",""stims/images/echidna.png"",""stims/images/pig.png"",""stims/images/turtle.png""]",echidna,echidna,NA,unfamiliar,pretest,4,stims/audio/find_echidna.wav,1,stims/images/aardvark.png,0,NA,NA,NA,NA,NA,NA,NA,NA,NA,NA,NA,NA,NA,NA,NA,NA,NA,NA,NA,NA,NA,NA,NA,NA,NA,NA,unfamiliar,echidna.jpg,chen,y,,NA,12,,,y,NA,NA,,14.22,NA,NA,NA,NA,NA,NA,NA,NA,NA,NA,NA,NA,NA,NA,NA
coact-test,18,63071,0.0-18.0,p004,4,3,NA,NA,NA,NA,NA,67209.06666666667,NA,NA,"[""stims/images/pig.png"",""stims/images/lobster.png"",""stims/images/tapir.png"",""stims/images/aardvark.png"",""stims/images/echidna.png"",""stims/images/armadillo.png"",""stims/images/turtle.png"",""stims/images/hippopotamus.png""]",tapir,tapir,NA,unfamiliar,pretest,4,stims/audio/wheres_tapir.wav,1,stims/images/lobster.png,0,NA,NA,NA,NA,NA,NA,NA,NA,NA,NA,NA,NA,NA,NA,NA,NA,NA,NA,NA,NA,NA,NA,NA,NA,NA,NA,unfamiliar,editing_needed,dimy,y,,11.23,13,,,y,NA,NA,,11.23,NA,NA,NA,NA,NA,NA,NA,NA,NA,NA,NA,NA,NA,NA,NA
coact-test,20,68916,0.0-20.0,p004,4,3,NA,NA,NA,NA,NA,73048.832,NA,NA,"[""stims/images/tapir.png"",""stims/images/armadillo.png"",""stims/images/pig.png"",""stims/images/lobster.png"",""stims/images/turtle.png"",""stims/images/echidna.png"",""stims/images/hippopotamus.png"",""stims/images/aardvark.png""]",hippopotamus,hippopotamus,NA,somewhat familiar,pretest,4,stims/audio/wheres_hippopotamus.wav,6,stims/images/hippopotamus.png,1,NA,NA,NA,NA,NA,NA,NA,NA,NA,NA,NA,NA,NA,NA,NA,NA,NA,NA,NA,NA,NA,NA,NA,NA,NA,NA,somewhat_familiar,hippopotamus.png,BOSS,n,,7,4,,,y,NA,NA,,7,NA,NA,NA,NA,NA,NA,NA,NA,NA,NA,NA,NA,NA,NA,NA
coact-test,22,72566,0.0-22.0,p004,4,3,NA,NA,NA,NA,NA,76691.57866666667,NA,NA,"[""stims/images/aardvark.png"",""stims/images/turtle.png"",""stims/images/lobster.png"",""stims/images/echidna.png"",""stims/images/hippopotamus.png"",""stims/images/tapir.png"",""stims/images/pig.png"",""stims/images/armadillo.png""]",lobster,lobster,NA,somewhat familiar,pretest,4,stims/audio/find_lobster.wav,2,stims/images/lobster.png,1,NA,NA,NA,NA,NA,NA,NA,NA,NA,NA,NA,NA,NA,NA,NA,NA,NA,NA,NA,NA,NA,NA,NA,NA,NA,NA,somewhat_familiar,lobster.png,BOSS,n,,7.44,2,,,y,NA,NA,,7.44,NA,NA,NA,NA,NA,NA,NA,NA,NA,NA,NA,NA,NA,NA,NA
coact-grid,24,95917,0.0-24.0,p004,4,3,NA,NA,NA,NA,NA,8721.999999999985,NA,NA,"[""stims/images/butterfly.png"",""stims/images/horse.png"",""stims/images/frog.png"",""stims/images/squirrel.png"",""stims/images/wolf.png"",""stims/images/cat.png"",""stims/images/duck.png"",""stims/images/cow.png""]",NA,NA,NA,NA,NA,familiar,NA,NA,NA,NA,NA,"[6,1]","[""stims/images/duck.png"",""stims/images/horse.png""]","[""duck"",""horse""]","[""stims/audio/its_duck.wav"",""stims/audio/its_horse.wav""]",left,"[""stims/images/duck.png"",""stims/images/horse.png""]","[""stims/audio/its_duck.wav"",""stims/audio/its_horse.wav""]","[""duck"",""horse""]",passive,0,NA,NA,NA,NA,NA,NA,NA,NA,NA,NA,NA,NA,NA,NA,NA,NA,NA,NA,NA,NA,NA,NA,NA,NA,NA,NA,NA,NA,NA,NA,NA,NA,NA,NA,NA,NA,NA,NA,NA,NA,NA,NA,NA,NA
coact-grid-choice,25,98081,0.0-25.0,p004,4,3,NA,NA,NA,NA,NA,2161.9999999999854,NA,NA,"[""stims/images/butterfly.png"",""stims/images/horse.png"",""stims/images/frog.png"",""stims/images/squirrel.png"",""stims/images/wolf.png"",""stims/images/cat.png"",""stims/images/duck.png"",""stims/images/cow.png""]",NA,NA,NA,NA,NA,familiar,NA,NA,stims/images/horse.png,NA,NA,NA,NA,NA,NA,left,"[""stims/images/duck.png"",""stims/images/horse.png""]","[""stims/audio/its_duck.wav"",""stims/audio/its_horse.wav""]","[""duck"",""horse""]",passive,0,1,stims/audio/its_horse.wav,"[""stims/images/duck.png"",""stims/images/horse.png""]",NA,NA,NA,NA,NA,NA,NA,NA,NA,NA,NA,NA,NA,NA,NA,NA,NA,NA,NA,NA,NA,NA,NA,NA,NA,NA,horse,familiar,horse.png,BOSS,n,,4.15,2,,,fam,NA,0,unfamiliar,4.15
coact-grid-choice-audio,26,101091,0.0-26.0,p004,4,3,NA,NA,NA,NA,NA,3000,NA,NA,"[""stims/images/butterfly.png"",""stims/images/horse.png"",""stims/images/frog.png"",""stims/images/squirrel.png"",""stims/images/wolf.png"",""stims/images/cat.png"",""stims/images/duck.png"",""stims/images/cow.png""]",NA,NA,NA,NA,NA,familiar,NA,NA,stims/images/horse.png,NA,NA,NA,NA,NA,NA,left,NA,NA,NA,passive,0,NA,stims/audio/its_horse.wav,"[""stims/images/duck.png"",""stims/images/horse.png""]",NA,NA,NA,NA,NA,NA,NA,NA,NA,NA,NA,NA,NA,NA,NA,NA,NA,NA,NA,NA,NA,NA,NA,NA,NA,NA,horse,familiar,horse.png,BOSS,n,,4.15,2,,,fam,NA,0,unfamiliar,4.15
coact-grid,27,104755,0.0-27.0,p004,4,3,NA,NA,NA,NA,NA,2355,NA,NA,"[""stims/images/armadillo.png"",""stims/images/tapir.png"",""stims/images/echidna.png"",""stims/images/lobster.png"",""stims/images/hippopotamus.png"",""stims/images/aardvark.png"",""stims/images/turtle.png"",""stims/images/pig.png""]",NA,NA,NA,NA,NA,4,NA,NA,NA,NA,NA,"[2,5]","[""stims/images/echidna.png"",""stims/images/aardvark.png""]","[""echidna"",""aardvark""]","[""stims/audio/thats_echidna.wav"",""stims/audio/thats_aardvark.wav""]",left,"[""stims/images/echidna.png"",""stims/images/aardvark.png""]","[""stims/audio/thats_echidna.wav"",""stims/audio/thats_aardvark.wav""]","[""echidna"",""aardvark""]",passive,0,NA,NA,NA,NA,NA,NA,NA,NA,NA,NA,NA,NA,NA,NA,NA,NA,NA,NA,NA,NA,NA,NA,NA,NA,NA,NA,NA,NA,NA,NA,NA,NA,NA,NA,NA,NA,NA,NA,NA,NA,NA,NA,NA,NA
coact-grid-choice,28,107603,0.0-28.0,p004,4,3,NA,NA,NA,NA,NA,2847,NA,NA,"[""stims/images/armadillo.png"",""stims/images/tapir.png"",""stims/images/echidna.png"",""stims/images/lobster.png"",""stims/images/hippopotamus.png"",""stims/images/aardvark.png"",""stims/images/turtle.png"",""stims/images/pig.png""]",NA,NA,NA,NA,NA,4,NA,NA,stims/images/echidna.png,NA,NA,NA,NA,NA,NA,left,"[""stims/images/echidna.png"",""stims/images/aardvark.png""]","[""stims/audio/thats_echidna.wav"",""stims/audio/thats_aardvark.wav""]","[""echidna"",""aardvark""]",passive,0,0,stims/audio/thats_echidna.wav,"[""stims/images/echidna.png"",""stims/images/aardvark.png""]",NA,NA,NA,NA,NA,NA,NA,NA,NA,NA,NA,NA,NA,NA,NA,NA,NA,NA,NA,NA,NA,NA,NA,NA,NA,NA,echidna,unfamiliar,echidna.jpg,chen,y,,NA,12,,,y,NA,NA,,14.22
coact-grid-choice-audio,29,110615,0.0-29.0,p004,4,3,NA,NA,NA,NA,NA,3000,NA,NA,"[""stims/images/armadillo.png"",""stims/images/tapir.png"",""stims/images/echidna.png"",""stims/images/lobster.png"",""stims/images/hippopotamus.png"",""stims/images/aardvark.png"",""stims/images/turtle.png"",""stims/images/pig.png""]",NA,NA,NA,NA,NA,4,NA,NA,stims/images/echidna.png,NA,NA,NA,NA,NA,NA,left,NA,NA,NA,passive,0,NA,stims/audio/thats_echidna.wav,"[""stims/images/echidna.png"",""stims/images/aardvark.png""]",NA,NA,NA,NA,NA,NA,NA,NA,NA,NA,NA,NA,NA,NA,NA,NA,NA,NA,NA,NA,NA,NA,NA,NA,NA,NA,echidna,unfamiliar,echidna.jpg,chen,y,,NA,12,,,y,NA,NA,,14.22
coact-grid,30,114027,0.0-30.0,p004,4,3,NA,NA,NA,NA,NA,2106,NA,NA,"[""stims/images/echidna.png"",""stims/images/lobster.png"",""stims/images/armadillo.png"",""stims/images/aardvark.png"",""stims/images/tapir.png"",""stims/images/turtle.png"",""stims/images/hippopotamus.png"",""stims/images/pig.png""]",NA,NA,NA,NA,NA,4,NA,NA,NA,NA,NA,"[7,1]","[""stims/images/pig.png"",""stims/images/lobster.png""]","[""pig"",""lobster""]","[""stims/audio/its_pig.wav"",""stims/audio/its_lobster.wav""]",right,"[""stims/images/lobster.png"",""stims/images/pig.png""]","[""stims/audio/its_lobster.wav"",""stims/audio/its_pig.wav""]","[""lobster"",""pig""]",passive,1,NA,NA,NA,NA,NA,NA,NA,NA,NA,NA,NA,NA,NA,NA,NA,NA,NA,NA,NA,NA,NA,NA,NA,NA,NA,NA,NA,NA,NA,NA,NA,NA,NA,NA,NA,NA,NA,NA,NA,NA,NA,NA,NA,NA
coact-grid-choice,31,116425,0.0-31.0,p004,4,3,NA,NA,NA,NA,NA,2397.0000000000146,NA,NA,"[""stims/images/echidna.png"",""stims/images/lobster.png"",""stims/images/armadillo.png"",""stims/images/aardvark.png"",""stims/images/tapir.png"",""stims/images/turtle.png"",""stims/images/hippopotamus.png"",""stims/images/pig.png""]",NA,NA,NA,NA,NA,4,NA,NA,stims/images/pig.png,NA,NA,NA,NA,NA,NA,right,"[""stims/images/lobster.png"",""stims/images/pig.png""]","[""stims/audio/its_lobster.wav"",""stims/audio/its_pig.wav""]","[""lobster"",""pig""]",passive,1,0,stims/audio/its_lobster.wav,"[""stims/images/pig.png"",""stims/images/lobster.png""]",NA,NA,NA,NA,NA,NA,NA,NA,NA,NA,NA,NA,NA,NA,NA,NA,NA,NA,NA,NA,NA,NA,NA,NA,NA,NA,lobster,somewhat_familiar,lobster.png,BOSS,n,,7.44,2,,,y,NA,NA,,7.44
coact-grid-choice-audio,32,119434,0.0-32.0,p004,4,3,NA,NA,NA,NA,NA,3000,NA,NA,"[""stims/images/echidna.png"",""stims/images/lobster.png"",""stims/images/armadillo.png"",""stims/images/aardvark.png"",""stims/images/tapir.png"",""stims/images/turtle.png"",""stims/images/hippopotamus.png"",""stims/images/pig.png""]",NA,NA,NA,NA,NA,4,NA,NA,stims/images/pig.png,NA,NA,NA,NA,NA,NA,right,NA,NA,NA,passive,1,NA,stims/audio/its_lobster.wav,"[""stims/images/pig.png"",""stims/images/lobster.png""]",NA,NA,NA,NA,NA,NA,NA,NA,NA,NA,NA,NA,NA,NA,NA,NA,NA,NA,NA,NA,NA,NA,NA,NA,NA,NA,lobster,somewhat_familiar,lobster.png,BOSS,n,,7.44,2,,,y,NA,NA,,7.44
coact-grid,33,122975,0.0-33.0,p004,4,3,NA,NA,NA,NA,NA,2234.0000000000146,NA,NA,"[""stims/images/armadillo.png"",""stims/images/tapir.png"",""stims/images/lobster.png"",""stims/images/turtle.png"",""stims/images/echidna.png"",""stims/images/hippopotamus.png"",""stims/images/pig.png"",""stims/images/aardvark.png""]",NA,NA,NA,NA,NA,4,NA,NA,NA,NA,NA,"[1,2]","[""stims/images/tapir.png"",""stims/images/lobster.png""]","[""tapir"",""lobster""]","[""stims/audio/its_tapir.wav"",""stims/audio/its_lobster.wav""]",right,"[""stims/images/lobster.png"",""stims/images/tapir.png""]","[""stims/audio/its_lobster.wav"",""stims/audio/its_tapir.wav""]","[""lobster"",""tapir""]",passive,2,NA,NA,NA,NA,NA,NA,NA,NA,NA,NA,NA,NA,NA,NA,NA,NA,NA,NA,NA,NA,NA,NA,NA,NA,NA,NA,NA,NA,NA,NA,NA,NA,NA,NA,NA,NA,NA,NA,NA,NA,NA,NA,NA,NA
coact-grid-choice,34,125281,0.0-34.0,p004,4,3,NA,NA,NA,NA,NA,2304,NA,NA,"[""stims/images/armadillo.png"",""stims/images/tapir.png"",""stims/images/lobster.png"",""stims/images/turtle.png"",""stims/images/echidna.png"",""stims/images/hippopotamus.png"",""stims/images/pig.png"",""stims/images/aardvark.png""]",NA,NA,NA,NA,NA,4,NA,NA,stims/images/lobster.png,NA,NA,NA,NA,NA,NA,right,"[""stims/images/lobster.png"",""stims/images/tapir.png""]","[""stims/audio/its_lobster.wav"",""stims/audio/its_tapir.wav""]","[""lobster"",""tapir""]",passive,2,1,stims/audio/its_tapir.wav,"[""stims/images/tapir.png"",""stims/images/lobster.png""]",NA,NA,NA,NA,NA,NA,NA,NA,NA,NA,NA,NA,NA,NA,NA,NA,NA,NA,NA,NA,NA,NA,NA,NA,NA,NA,tapir,unfamiliar,editing_needed,dimy,y,,11.23,13,,,y,NA,NA,,11.23
coact-grid-choice-audio,35,128291,0.0-35.0,p004,4,3,NA,NA,NA,NA,NA,3000,NA,NA,"[""stims/images/armadillo.png"",""stims/images/tapir.png"",""stims/images/lobster.png"",""stims/images/turtle.png"",""stims/images/echidna.png"",""stims/images/hippopotamus.png"",""stims/images/pig.png"",""stims/images/aardvark.png""]",NA,NA,NA,NA,NA,4,NA,NA,stims/images/lobster.png,NA,NA,NA,NA,NA,NA,right,NA,NA,NA,passive,2,NA,stims/audio/its_tapir.wav,"[""stims/images/tapir.png"",""stims/images/lobster.png""]",NA,NA,NA,NA,NA,NA,NA,NA,NA,NA,NA,NA,NA,NA,NA,NA,NA,NA,NA,NA,NA,NA,NA,NA,NA,NA,tapir,unfamiliar,editing_needed,dimy,y,,11.23,13,,,y,NA,NA,,11.23
coact-grid,36,131888,0.0-36.0,p004,4,3,NA,NA,NA,NA,NA,2291,NA,NA,"[""stims/images/hippopotamus.png"",""stims/images/echidna.png"",""stims/images/aardvark.png"",""stims/images/tapir.png"",""stims/images/armadillo.png"",""stims/images/pig.png"",""stims/images/turtle.png"",""stims/images/lobster.png""]",NA,NA,NA,NA,NA,4,NA,NA,NA,NA,NA,"[0,7]","[""stims/images/hippopotamus.png"",""stims/images/lobster.png""]","[""hippopotamus"",""lobster""]","[""stims/audio/thats_hippopotamus.wav"",""stims/audio/thats_lobster.wav""]",right,"[""stims/images/lobster.png"",""stims/images/hippopotamus.png""]","[""stims/audio/thats_lobster.wav"",""stims/audio/thats_hippopotamus.wav""]","[""lobster"",""hippopotamus""]",passive,3,NA,NA,NA,NA,NA,NA,NA,NA,NA,NA,NA,NA,NA,NA,NA,NA,NA,NA,NA,NA,NA,NA,NA,NA,NA,NA,NA,NA,NA,NA,NA,NA,NA,NA,NA,NA,NA,NA,NA,NA,NA,NA,NA,NA
coact-grid-choice,37,133236,0.0-37.0,p004,4,3,NA,NA,NA,NA,NA,1347,NA,NA,"[""stims/images/hippopotamus.png"",""stims/images/echidna.png"",""stims/images/aardvark.png"",""stims/images/tapir.png"",""stims/images/armadillo.png"",""stims/images/pig.png"",""stims/images/turtle.png"",""stims/images/lobster.png""]",NA,NA,NA,NA,NA,4,NA,NA,stims/images/hippopotamus.png,NA,NA,NA,NA,NA,NA,right,"[""stims/images/lobster.png"",""stims/images/hippopotamus.png""]","[""stims/audio/thats_lobster.wav"",""stims/audio/thats_hippopotamus.wav""]","[""lobster"",""hippopotamus""]",passive,3,0,stims/audio/thats_lobster.wav,"[""stims/images/hippopotamus.png"",""stims/images/lobster.png""]",NA,NA,NA,NA,NA,NA,NA,NA,NA,NA,NA,NA,NA,NA,NA,NA,NA,NA,NA,NA,NA,NA,NA,NA,NA,NA,lobster,somewhat_familiar,lobster.png,BOSS,n,,7.44,2,,,y,NA,NA,,7.44
coact-grid-choice-audio,38,136244,0.0-38.0,p004,4,3,NA,NA,NA,NA,NA,3000,NA,NA,"[""stims/images/hippopotamus.png"",""stims/images/echidna.png"",""stims/images/aardvark.png"",""stims/images/tapir.png"",""stims/images/armadillo.png"",""stims/images/pig.png"",""stims/images/turtle.png"",""stims/images/lobster.png""]",NA,NA,NA,NA,NA,4,NA,NA,stims/images/hippopotamus.png,NA,NA,NA,NA,NA,NA,right,NA,NA,NA,passive,3,NA,stims/audio/thats_lobster.wav,"[""stims/images/hippopotamus.png"",""stims/images/lobster.png""]",NA,NA,NA,NA,NA,NA,NA,NA,NA,NA,NA,NA,NA,NA,NA,NA,NA,NA,NA,NA,NA,NA,NA,NA,NA,NA,lobster,somewhat_familiar,lobster.png,BOSS,n,,7.44,2,,,y,NA,NA,,7.44
