participant_id,trial_type,rt,question_order,response,question,word,rating,familiar_classification,image,source,editing_needed,good_pic,aoa,AoAtestbased,use.,notes,version1,aoa_adj,aoa_nas_filled
p003,survey-likert,251511.79999999702,"[0,1,2,3,4,5,6,7,8,9,10,11,12,13,14,15,16,17,18,19,20,21,22,23,24,25,26,27,28,29,30,31,32,33,34,35,36,37,38,39]",,Q0,cat,5,familiar,cat.png,CATegories,n,,3.68,2,,,fam,3.68,3.68
p003,survey-likert,251511.79999999702,"[0,1,2,3,4,5,6,7,8,9,10,11,12,13,14,15,16,17,18,19,20,21,22,23,24,25,26,27,28,29,30,31,32,33,34,35,36,37,38,39]",,Q1,horse,5,familiar,horse.png,BOSS,n,,4.15,2,,,fam,4.15,4.15
p003,survey-likert,251511.79999999702,"[0,1,2,3,4,5,6,7,8,9,10,11,12,13,14,15,16,17,18,19,20,21,22,23,24,25,26,27,28,29,30,31,32,33,34,35,36,37,38,39]",,Q2,armadillo,3,somewhat_unfamiliar,armadillo.jpg,dimy,y,,8.608885,8,,,y,8.608885,8.608885
p003,survey-likert,251511.79999999702,"[0,1,2,3,4,5,6,7,8,9,10,11,12,13,14,15,16,17,18,19,20,21,22,23,24,25,26,27,28,29,30,31,32,33,34,35,36,37,38,39]",,Q3,wolf,5,familiar,wolf.png,BOSS,n,,4.5,2,,,fam,4.5,4.5
p003,survey-likert,251511.79999999702,"[0,1,2,3,4,5,6,7,8,9,10,11,12,13,14,15,16,17,18,19,20,21,22,23,24,25,26,27,28,29,30,31,32,33,34,35,36,37,38,39]",,Q4,cow,5,familiar,cow.png,BOSS,n,,3.94,2,,,fam,3.94,3.94
p003,survey-likert,251511.79999999702,"[0,1,2,3,4,5,6,7,8,9,10,11,12,13,14,15,16,17,18,19,20,21,22,23,24,25,26,27,28,29,30,31,32,33,34,35,36,37,38,39]",,Q5,nyala,0,unfamiliar,nyala.png,BOSS,n,,NA,NA,,,y,14.22,14.22
p003,survey-likert,251511.79999999702,"[0,1,2,3,4,5,6,7,8,9,10,11,12,13,14,15,16,17,18,19,20,21,22,23,24,25,26,27,28,29,30,31,32,33,34,35,36,37,38,39]",,Q6,jaguar,5,somewhat_familiar,jaguar.png,BOSS,n,,7.78,4,,,y,7.78,7.78
p003,survey-likert,251511.79999999702,"[0,1,2,3,4,5,6,7,8,9,10,11,12,13,14,15,16,17,18,19,20,21,22,23,24,25,26,27,28,29,30,31,32,33,34,35,36,37,38,39]",,Q7,cormorant,0,unfamiliar,cormorant.png,BOSS,n,,14.22,13,,,y,14.22,14.22
p003,survey-likert,251511.79999999702,"[0,1,2,3,4,5,6,7,8,9,10,11,12,13,14,15,16,17,18,19,20,21,22,23,24,25,26,27,28,29,30,31,32,33,34,35,36,37,38,39]",,Q8,frog,5,familiar,frog.png,CARE,n,,4.32,2,,,fam,4.32,4.32
p003,survey-likert,251511.79999999702,"[0,1,2,3,4,5,6,7,8,9,10,11,12,13,14,15,16,17,18,19,20,21,22,23,24,25,26,27,28,29,30,31,32,33,34,35,36,37,38,39]",,Q9,hippopotamus,5,somewhat_familiar,hippopotamus.png,BOSS,n,,7,4,,,y,7,7
p003,survey-likert,251511.79999999702,"[0,1,2,3,4,5,6,7,8,9,10,11,12,13,14,15,16,17,18,19,20,21,22,23,24,25,26,27,28,29,30,31,32,33,34,35,36,37,38,39]",,Q10,tiger,5,familiar,tiger.png,BOSS,n,,4,2,,,y,4,4
p003,survey-likert,251511.79999999702,"[0,1,2,3,4,5,6,7,8,9,10,11,12,13,14,15,16,17,18,19,20,21,22,23,24,25,26,27,28,29,30,31,32,33,34,35,36,37,38,39]",,Q11,pangolin,0,unfamiliar,pangolin.jpg,dimy,n,,NA,13,,,y,14.22,14.22
p003,survey-likert,251511.79999999702,"[0,1,2,3,4,5,6,7,8,9,10,11,12,13,14,15,16,17,18,19,20,21,22,23,24,25,26,27,28,29,30,31,32,33,34,35,36,37,38,39]",,Q12,sloth,4,somewhat_unfamiliar,sloth.jpg,chen,y,,8.37,12,,,y,8.37,8.37
p003,survey-likert,251511.79999999702,"[0,1,2,3,4,5,6,7,8,9,10,11,12,13,14,15,16,17,18,19,20,21,22,23,24,25,26,27,28,29,30,31,32,33,34,35,36,37,38,39]",,Q13,tapir,0,unfamiliar,editing_needed,dimy,y,,11.23,13,,,y,11.23,11.23
p003,survey-likert,251511.79999999702,"[0,1,2,3,4,5,6,7,8,9,10,11,12,13,14,15,16,17,18,19,20,21,22,23,24,25,26,27,28,29,30,31,32,33,34,35,36,37,38,39]",,Q14,butterfly,5,familiar,butterfly.png,BOSS,n,,3.67,2,,,fam,3.67,3.67
p003,survey-likert,251511.79999999702,"[0,1,2,3,4,5,6,7,8,9,10,11,12,13,14,15,16,17,18,19,20,21,22,23,24,25,26,27,28,29,30,31,32,33,34,35,36,37,38,39]",,Q15,flamingo,4,somewhat_familiar,flamingo.png,BOSS,n,,6.32,6,,,y,6.32,6.32
p003,survey-likert,251511.79999999702,"[0,1,2,3,4,5,6,7,8,9,10,11,12,13,14,15,16,17,18,19,20,21,22,23,24,25,26,27,28,29,30,31,32,33,34,35,36,37,38,39]",,Q16,dolphin,5,somewhat_familiar,dolphin.png,BOSS,n,,6.05,10,,,y,6.05,6.05
p003,survey-likert,251511.79999999702,"[0,1,2,3,4,5,6,7,8,9,10,11,12,13,14,15,16,17,18,19,20,21,22,23,24,25,26,27,28,29,30,31,32,33,34,35,36,37,38,39]",,Q17,duck,5,familiar,duck.png,MEM,n,,3.5,2,,,fam,3.5,3.5
p003,survey-likert,251511.79999999702,"[0,1,2,3,4,5,6,7,8,9,10,11,12,13,14,15,16,17,18,19,20,21,22,23,24,25,26,27,28,29,30,31,32,33,34,35,36,37,38,39]",,Q18,chameleon,3,somewhat_unfamiliar,chameleon.png,BOSS,n,,10.18,12,,,y,10.18,10.18
p003,survey-likert,251511.79999999702,"[0,1,2,3,4,5,6,7,8,9,10,11,12,13,14,15,16,17,18,19,20,21,22,23,24,25,26,27,28,29,30,31,32,33,34,35,36,37,38,39]",,Q19,elephant,5,familiar,elephant.png,BOSS,n,,4.8,2,,,y,4.8,4.8
p003,survey-likert,251511.79999999702,"[0,1,2,3,4,5,6,7,8,9,10,11,12,13,14,15,16,17,18,19,20,21,22,23,24,25,26,27,28,29,30,31,32,33,34,35,36,37,38,39]",,Q20,narwhal,3,unfamiliar,narwhal.png,BOSS,n,,12.14,12,,,y,12.14,12.14
p003,survey-likert,251511.79999999702,"[0,1,2,3,4,5,6,7,8,9,10,11,12,13,14,15,16,17,18,19,20,21,22,23,24,25,26,27,28,29,30,31,32,33,34,35,36,37,38,39]",,Q21,antelope,3,somewhat_unfamiliar,antelope.png,BOSS,n,,8.39,4,,,y,8.39,8.39
p003,survey-likert,251511.79999999702,"[0,1,2,3,4,5,6,7,8,9,10,11,12,13,14,15,16,17,18,19,20,21,22,23,24,25,26,27,28,29,30,31,32,33,34,35,36,37,38,39]",,Q22,aardvark,2,somewhat_unfamiliar,aardvark.jpg,chen,y,,9.89,14,,,y,9.89,9.89
p003,survey-likert,251511.79999999702,"[0,1,2,3,4,5,6,7,8,9,10,11,12,13,14,15,16,17,18,19,20,21,22,23,24,25,26,27,28,29,30,31,32,33,34,35,36,37,38,39]",,Q23,lobster,2,somewhat_familiar,lobster.png,BOSS,n,,7.44,2,,,y,7.44,7.44
p003,survey-likert,251511.79999999702,"[0,1,2,3,4,5,6,7,8,9,10,11,12,13,14,15,16,17,18,19,20,21,22,23,24,25,26,27,28,29,30,31,32,33,34,35,36,37,38,39]",,Q24,pig,5,familiar,pig.png,BOSS,n,,3.84,2,,,y,3.84,3.84
p003,survey-likert,251511.79999999702,"[0,1,2,3,4,5,6,7,8,9,10,11,12,13,14,15,16,17,18,19,20,21,22,23,24,25,26,27,28,29,30,31,32,33,34,35,36,37,38,39]",,Q25,bear,5,familiar,bear.png,BOSS,n,,3.58,2,,,y,3.58,3.58
p003,survey-likert,251511.79999999702,"[0,1,2,3,4,5,6,7,8,9,10,11,12,13,14,15,16,17,18,19,20,21,22,23,24,25,26,27,28,29,30,31,32,33,34,35,36,37,38,39]",,Q26,porcupine,4,somewhat_familiar,porcupine.png,BOSS,n,,6.89,6,,,y,6.89,6.89
p003,survey-likert,251511.79999999702,"[0,1,2,3,4,5,6,7,8,9,10,11,12,13,14,15,16,17,18,19,20,21,22,23,24,25,26,27,28,29,30,31,32,33,34,35,36,37,38,39]",,Q27,raccoon,4,somewhat_familiar,raccoon.png,BOSS,n,,6.79,2,,,y,6.79,6.79
p003,survey-likert,251511.79999999702,"[0,1,2,3,4,5,6,7,8,9,10,11,12,13,14,15,16,17,18,19,20,21,22,23,24,25,26,27,28,29,30,31,32,33,34,35,36,37,38,39]",,Q28,wombat,1,unfamiliar,editing_needed,dimy,y,,11.31,13,,,y,11.31,11.31
p003,survey-likert,251511.79999999702,"[0,1,2,3,4,5,6,7,8,9,10,11,12,13,14,15,16,17,18,19,20,21,22,23,24,25,26,27,28,29,30,31,32,33,34,35,36,37,38,39]",,Q29,manatee,3,somewhat_unfamiliar,manatee.jpg,Moreno,y,,10.56,14,,,y,10.56,10.56
p003,survey-likert,251511.79999999702,"[0,1,2,3,4,5,6,7,8,9,10,11,12,13,14,15,16,17,18,19,20,21,22,23,24,25,26,27,28,29,30,31,32,33,34,35,36,37,38,39]",,Q30,zebra,5,familiar,zebra.png,BOSS,n,,4.79,2,,,y,4.79,4.79
p003,survey-likert,251511.79999999702,"[0,1,2,3,4,5,6,7,8,9,10,11,12,13,14,15,16,17,18,19,20,21,22,23,24,25,26,27,28,29,30,31,32,33,34,35,36,37,38,39]",,Q31,koala,5,somewhat_familiar,koala.jpg,dimy,y,,6,10,,,y,6,6
p003,survey-likert,251511.79999999702,"[0,1,2,3,4,5,6,7,8,9,10,11,12,13,14,15,16,17,18,19,20,21,22,23,24,25,26,27,28,29,30,31,32,33,34,35,36,37,38,39]",,Q32,turtle,5,familiar,turtle.png,BOSS,n,,4.17,2,,,y,4.17,4.17
p003,survey-likert,251511.79999999702,"[0,1,2,3,4,5,6,7,8,9,10,11,12,13,14,15,16,17,18,19,20,21,22,23,24,25,26,27,28,29,30,31,32,33,34,35,36,37,38,39]",,Q33,squirrel,5,familiar,squirrel.png,BOSS,n,,4.44,2,N,not a great picture,fam,4.44,4.44
p003,survey-likert,251511.79999999702,"[0,1,2,3,4,5,6,7,8,9,10,11,12,13,14,15,16,17,18,19,20,21,22,23,24,25,26,27,28,29,30,31,32,33,34,35,36,37,38,39]",,Q34,rabbit,5,familiar,rabbit.png,BOSS,n,,3.94,2,,,y,3.94,3.94
p003,survey-likert,251511.79999999702,"[0,1,2,3,4,5,6,7,8,9,10,11,12,13,14,15,16,17,18,19,20,21,22,23,24,25,26,27,28,29,30,31,32,33,34,35,36,37,38,39]",,Q35,echidna,0,unfamiliar,echidna.jpg,chen,y,,NA,12,,,y,14.22,14.22
p003,survey-likert,251511.79999999702,"[0,1,2,3,4,5,6,7,8,9,10,11,12,13,14,15,16,17,18,19,20,21,22,23,24,25,26,27,28,29,30,31,32,33,34,35,36,37,38,39]",,Q36,tarsier,0,unfamiliar,tarsier.jpeg,Wikimedia,y,,NA,NA,,,y,14.22,14.22
p003,survey-likert,251511.79999999702,"[0,1,2,3,4,5,6,7,8,9,10,11,12,13,14,15,16,17,18,19,20,21,22,23,24,25,26,27,28,29,30,31,32,33,34,35,36,37,38,39]",,Q37,alpaca,0,somewhat_unfamiliar,alpaca.jpg,dimy,y,,10.81,12,,,y,10.81,10.81
p003,survey-likert,251511.79999999702,"[0,1,2,3,4,5,6,7,8,9,10,11,12,13,14,15,16,17,18,19,20,21,22,23,24,25,26,27,28,29,30,31,32,33,34,35,36,37,38,39]",,Q38,lynx,0,unfamiliar,lynx.png,BOSS,n,,10.53,13,,,y,10.53,10.53
p003,survey-likert,251511.79999999702,"[0,1,2,3,4,5,6,7,8,9,10,11,12,13,14,15,16,17,18,19,20,21,22,23,24,25,26,27,28,29,30,31,32,33,34,35,36,37,38,39]",,Q39,dog,5,familiar,dog.png,CATegories,n,,2.8,2,,,y,2.8,2.8
p004,survey-likert,253913,"[0,1,2,3,4,5,6,7,8,9,10,11,12,13,14,15,16,17,18,19,20,21,22,23,24,25,26,27,28,29,30,31,32,33,34,35,36,37,38,39]",,Q0,elephant,5,familiar,elephant.png,BOSS,n,,4.8,2,,,y,4.8,4.8
p004,survey-likert,253913,"[0,1,2,3,4,5,6,7,8,9,10,11,12,13,14,15,16,17,18,19,20,21,22,23,24,25,26,27,28,29,30,31,32,33,34,35,36,37,38,39]",,Q1,manatee,4,somewhat_unfamiliar,manatee.jpg,Moreno,y,,10.56,14,,,y,10.56,10.56
p004,survey-likert,253913,"[0,1,2,3,4,5,6,7,8,9,10,11,12,13,14,15,16,17,18,19,20,21,22,23,24,25,26,27,28,29,30,31,32,33,34,35,36,37,38,39]",,Q2,dolphin,5,somewhat_familiar,dolphin.png,BOSS,n,,6.05,10,,,y,6.05,6.05
p004,survey-likert,253913,"[0,1,2,3,4,5,6,7,8,9,10,11,12,13,14,15,16,17,18,19,20,21,22,23,24,25,26,27,28,29,30,31,32,33,34,35,36,37,38,39]",,Q3,cat,5,familiar,cat.png,CATegories,n,,3.68,2,,,fam,3.68,3.68
p004,survey-likert,253913,"[0,1,2,3,4,5,6,7,8,9,10,11,12,13,14,15,16,17,18,19,20,21,22,23,24,25,26,27,28,29,30,31,32,33,34,35,36,37,38,39]",,Q4,armadillo,5,somewhat_unfamiliar,armadillo.jpg,dimy,y,,8.608885,8,,,y,8.608885,8.608885
p004,survey-likert,253913,"[0,1,2,3,4,5,6,7,8,9,10,11,12,13,14,15,16,17,18,19,20,21,22,23,24,25,26,27,28,29,30,31,32,33,34,35,36,37,38,39]",,Q5,tapir,3,unfamiliar,editing_needed,dimy,y,,11.23,13,,,y,11.23,11.23
p004,survey-likert,253913,"[0,1,2,3,4,5,6,7,8,9,10,11,12,13,14,15,16,17,18,19,20,21,22,23,24,25,26,27,28,29,30,31,32,33,34,35,36,37,38,39]",,Q6,tiger,5,familiar,tiger.png,BOSS,n,,4,2,,,y,4,4
p004,survey-likert,253913,"[0,1,2,3,4,5,6,7,8,9,10,11,12,13,14,15,16,17,18,19,20,21,22,23,24,25,26,27,28,29,30,31,32,33,34,35,36,37,38,39]",,Q7,lobster,5,somewhat_familiar,lobster.png,BOSS,n,,7.44,2,,,y,7.44,7.44
p004,survey-likert,253913,"[0,1,2,3,4,5,6,7,8,9,10,11,12,13,14,15,16,17,18,19,20,21,22,23,24,25,26,27,28,29,30,31,32,33,34,35,36,37,38,39]",,Q8,tarsier,1,unfamiliar,tarsier.jpeg,Wikimedia,y,,NA,NA,,,y,14.22,14.22
p004,survey-likert,253913,"[0,1,2,3,4,5,6,7,8,9,10,11,12,13,14,15,16,17,18,19,20,21,22,23,24,25,26,27,28,29,30,31,32,33,34,35,36,37,38,39]",,Q9,koala,5,somewhat_familiar,koala.jpg,dimy,y,,6,10,,,y,6,6
p004,survey-likert,253913,"[0,1,2,3,4,5,6,7,8,9,10,11,12,13,14,15,16,17,18,19,20,21,22,23,24,25,26,27,28,29,30,31,32,33,34,35,36,37,38,39]",,Q10,alpaca,3,somewhat_unfamiliar,alpaca.jpg,dimy,y,,10.81,12,,,y,10.81,10.81
p004,survey-likert,253913,"[0,1,2,3,4,5,6,7,8,9,10,11,12,13,14,15,16,17,18,19,20,21,22,23,24,25,26,27,28,29,30,31,32,33,34,35,36,37,38,39]",,Q11,sloth,5,somewhat_unfamiliar,sloth.jpg,chen,y,,8.37,12,,,y,8.37,8.37
p004,survey-likert,253913,"[0,1,2,3,4,5,6,7,8,9,10,11,12,13,14,15,16,17,18,19,20,21,22,23,24,25,26,27,28,29,30,31,32,33,34,35,36,37,38,39]",,Q12,aardvark,4,somewhat_unfamiliar,aardvark.jpg,chen,y,,9.89,14,,,y,9.89,9.89
p004,survey-likert,253913,"[0,1,2,3,4,5,6,7,8,9,10,11,12,13,14,15,16,17,18,19,20,21,22,23,24,25,26,27,28,29,30,31,32,33,34,35,36,37,38,39]",,Q13,bear,5,familiar,bear.png,BOSS,n,,3.58,2,,,y,3.58,3.58
p004,survey-likert,253913,"[0,1,2,3,4,5,6,7,8,9,10,11,12,13,14,15,16,17,18,19,20,21,22,23,24,25,26,27,28,29,30,31,32,33,34,35,36,37,38,39]",,Q14,dog,5,familiar,dog.png,CATegories,n,,2.8,2,,,y,2.8,2.8
p004,survey-likert,253913,"[0,1,2,3,4,5,6,7,8,9,10,11,12,13,14,15,16,17,18,19,20,21,22,23,24,25,26,27,28,29,30,31,32,33,34,35,36,37,38,39]",,Q15,wombat,4,unfamiliar,editing_needed,dimy,y,,11.31,13,,,y,11.31,11.31
p004,survey-likert,253913,"[0,1,2,3,4,5,6,7,8,9,10,11,12,13,14,15,16,17,18,19,20,21,22,23,24,25,26,27,28,29,30,31,32,33,34,35,36,37,38,39]",,Q16,horse,5,familiar,horse.png,BOSS,n,,4.15,2,,,fam,4.15,4.15
p004,survey-likert,253913,"[0,1,2,3,4,5,6,7,8,9,10,11,12,13,14,15,16,17,18,19,20,21,22,23,24,25,26,27,28,29,30,31,32,33,34,35,36,37,38,39]",,Q17,cow,5,familiar,cow.png,BOSS,n,,3.94,2,,,fam,3.94,3.94
p004,survey-likert,253913,"[0,1,2,3,4,5,6,7,8,9,10,11,12,13,14,15,16,17,18,19,20,21,22,23,24,25,26,27,28,29,30,31,32,33,34,35,36,37,38,39]",,Q18,cormorant,1,unfamiliar,cormorant.png,BOSS,n,,14.22,13,,,y,14.22,14.22
p004,survey-likert,253913,"[0,1,2,3,4,5,6,7,8,9,10,11,12,13,14,15,16,17,18,19,20,21,22,23,24,25,26,27,28,29,30,31,32,33,34,35,36,37,38,39]",,Q19,jaguar,5,somewhat_familiar,jaguar.png,BOSS,n,,7.78,4,,,y,7.78,7.78
p004,survey-likert,253913,"[0,1,2,3,4,5,6,7,8,9,10,11,12,13,14,15,16,17,18,19,20,21,22,23,24,25,26,27,28,29,30,31,32,33,34,35,36,37,38,39]",,Q20,antelope,5,somewhat_unfamiliar,antelope.png,BOSS,n,,8.39,4,,,y,8.39,8.39
p004,survey-likert,253913,"[0,1,2,3,4,5,6,7,8,9,10,11,12,13,14,15,16,17,18,19,20,21,22,23,24,25,26,27,28,29,30,31,32,33,34,35,36,37,38,39]",,Q21,echidna,3,unfamiliar,echidna.jpg,chen,y,,NA,12,,,y,14.22,14.22
p004,survey-likert,253913,"[0,1,2,3,4,5,6,7,8,9,10,11,12,13,14,15,16,17,18,19,20,21,22,23,24,25,26,27,28,29,30,31,32,33,34,35,36,37,38,39]",,Q22,lynx,3,unfamiliar,lynx.png,BOSS,n,,10.53,13,,,y,10.53,10.53
p004,survey-likert,253913,"[0,1,2,3,4,5,6,7,8,9,10,11,12,13,14,15,16,17,18,19,20,21,22,23,24,25,26,27,28,29,30,31,32,33,34,35,36,37,38,39]",,Q23,porcupine,5,somewhat_familiar,porcupine.png,BOSS,n,,6.89,6,,,y,6.89,6.89
p004,survey-likert,253913,"[0,1,2,3,4,5,6,7,8,9,10,11,12,13,14,15,16,17,18,19,20,21,22,23,24,25,26,27,28,29,30,31,32,33,34,35,36,37,38,39]",,Q24,nyala,1,unfamiliar,nyala.png,BOSS,n,,NA,NA,,,y,14.22,14.22
p004,survey-likert,253913,"[0,1,2,3,4,5,6,7,8,9,10,11,12,13,14,15,16,17,18,19,20,21,22,23,24,25,26,27,28,29,30,31,32,33,34,35,36,37,38,39]",,Q25,hippopotamus,5,somewhat_familiar,hippopotamus.png,BOSS,n,,7,4,,,y,7,7
p004,survey-likert,253913,"[0,1,2,3,4,5,6,7,8,9,10,11,12,13,14,15,16,17,18,19,20,21,22,23,24,25,26,27,28,29,30,31,32,33,34,35,36,37,38,39]",,Q26,butterfly,5,familiar,butterfly.png,BOSS,n,,3.67,2,,,fam,3.67,3.67
p004,survey-likert,253913,"[0,1,2,3,4,5,6,7,8,9,10,11,12,13,14,15,16,17,18,19,20,21,22,23,24,25,26,27,28,29,30,31,32,33,34,35,36,37,38,39]",,Q27,narwhal,5,unfamiliar,narwhal.png,BOSS,n,,12.14,12,,,y,12.14,12.14
p004,survey-likert,253913,"[0,1,2,3,4,5,6,7,8,9,10,11,12,13,14,15,16,17,18,19,20,21,22,23,24,25,26,27,28,29,30,31,32,33,34,35,36,37,38,39]",,Q28,squirrel,5,familiar,squirrel.png,BOSS,n,,4.44,2,N,not a great picture,fam,4.44,4.44
p004,survey-likert,253913,"[0,1,2,3,4,5,6,7,8,9,10,11,12,13,14,15,16,17,18,19,20,21,22,23,24,25,26,27,28,29,30,31,32,33,34,35,36,37,38,39]",,Q29,wolf,5,familiar,wolf.png,BOSS,n,,4.5,2,,,fam,4.5,4.5
p004,survey-likert,253913,"[0,1,2,3,4,5,6,7,8,9,10,11,12,13,14,15,16,17,18,19,20,21,22,23,24,25,26,27,28,29,30,31,32,33,34,35,36,37,38,39]",,Q30,raccoon,5,somewhat_familiar,raccoon.png,BOSS,n,,6.79,2,,,y,6.79,6.79
p004,survey-likert,253913,"[0,1,2,3,4,5,6,7,8,9,10,11,12,13,14,15,16,17,18,19,20,21,22,23,24,25,26,27,28,29,30,31,32,33,34,35,36,37,38,39]",,Q31,zebra,5,familiar,zebra.png,BOSS,n,,4.79,2,,,y,4.79,4.79
p004,survey-likert,253913,"[0,1,2,3,4,5,6,7,8,9,10,11,12,13,14,15,16,17,18,19,20,21,22,23,24,25,26,27,28,29,30,31,32,33,34,35,36,37,38,39]",,Q32,pangolin,3,unfamiliar,pangolin.jpg,dimy,n,,NA,13,,,y,14.22,14.22
p004,survey-likert,253913,"[0,1,2,3,4,5,6,7,8,9,10,11,12,13,14,15,16,17,18,19,20,21,22,23,24,25,26,27,28,29,30,31,32,33,34,35,36,37,38,39]",,Q33,rabbit,5,familiar,rabbit.png,BOSS,n,,3.94,2,,,y,3.94,3.94
p004,survey-likert,253913,"[0,1,2,3,4,5,6,7,8,9,10,11,12,13,14,15,16,17,18,19,20,21,22,23,24,25,26,27,28,29,30,31,32,33,34,35,36,37,38,39]",,Q34,flamingo,5,somewhat_familiar,flamingo.png,BOSS,n,,6.32,6,,,y,6.32,6.32
p004,survey-likert,253913,"[0,1,2,3,4,5,6,7,8,9,10,11,12,13,14,15,16,17,18,19,20,21,22,23,24,25,26,27,28,29,30,31,32,33,34,35,36,37,38,39]",,Q35,duck,5,familiar,duck.png,MEM,n,,3.5,2,,,fam,3.5,3.5
p004,survey-likert,253913,"[0,1,2,3,4,5,6,7,8,9,10,11,12,13,14,15,16,17,18,19,20,21,22,23,24,25,26,27,28,29,30,31,32,33,34,35,36,37,38,39]",,Q36,turtle,5,familiar,turtle.png,BOSS,n,,4.17,2,,,y,4.17,4.17
p004,survey-likert,253913,"[0,1,2,3,4,5,6,7,8,9,10,11,12,13,14,15,16,17,18,19,20,21,22,23,24,25,26,27,28,29,30,31,32,33,34,35,36,37,38,39]",,Q37,frog,5,familiar,frog.png,CARE,n,,4.32,2,,,fam,4.32,4.32
p004,survey-likert,253913,"[0,1,2,3,4,5,6,7,8,9,10,11,12,13,14,15,16,17,18,19,20,21,22,23,24,25,26,27,28,29,30,31,32,33,34,35,36,37,38,39]",,Q38,pig,5,familiar,pig.png,BOSS,n,,3.84,2,,,y,3.84,3.84
p004,survey-likert,253913,"[0,1,2,3,4,5,6,7,8,9,10,11,12,13,14,15,16,17,18,19,20,21,22,23,24,25,26,27,28,29,30,31,32,33,34,35,36,37,38,39]",,Q39,chameleon,5,somewhat_unfamiliar,chameleon.png,BOSS,n,,10.18,12,,,y,10.18,10.18
p005,survey-likert,144955,"[0,1,2,3,4,5,6,7,8,9,10,11,12,13,14,15,16,17,18,19,20,21,22,23,24,25,26,27,28,29,30,31,32,33,34,35,36,37,38,39]",,Q0,koala,2,somewhat_familiar,koala.jpg,dimy,y,,6,10,,,y,6,6
p005,survey-likert,144955,"[0,1,2,3,4,5,6,7,8,9,10,11,12,13,14,15,16,17,18,19,20,21,22,23,24,25,26,27,28,29,30,31,32,33,34,35,36,37,38,39]",,Q1,duck,3,familiar,duck.png,MEM,n,,3.5,2,,,fam,3.5,3.5
p005,survey-likert,144955,"[0,1,2,3,4,5,6,7,8,9,10,11,12,13,14,15,16,17,18,19,20,21,22,23,24,25,26,27,28,29,30,31,32,33,34,35,36,37,38,39]",,Q2,elephant,5,familiar,elephant.png,BOSS,n,,4.8,2,,,y,4.8,4.8
p005,survey-likert,144955,"[0,1,2,3,4,5,6,7,8,9,10,11,12,13,14,15,16,17,18,19,20,21,22,23,24,25,26,27,28,29,30,31,32,33,34,35,36,37,38,39]",,Q3,tapir,NA,unfamiliar,editing_needed,dimy,y,,11.23,13,,,y,11.23,11.23
p005,survey-likert,144955,"[0,1,2,3,4,5,6,7,8,9,10,11,12,13,14,15,16,17,18,19,20,21,22,23,24,25,26,27,28,29,30,31,32,33,34,35,36,37,38,39]",,Q4,wolf,2,familiar,wolf.png,BOSS,n,,4.5,2,,,fam,4.5,4.5
p005,survey-likert,144955,"[0,1,2,3,4,5,6,7,8,9,10,11,12,13,14,15,16,17,18,19,20,21,22,23,24,25,26,27,28,29,30,31,32,33,34,35,36,37,38,39]",,Q5,nyala,0,unfamiliar,nyala.png,BOSS,n,,NA,NA,,,y,14.22,14.22
p005,survey-likert,144955,"[0,1,2,3,4,5,6,7,8,9,10,11,12,13,14,15,16,17,18,19,20,21,22,23,24,25,26,27,28,29,30,31,32,33,34,35,36,37,38,39]",,Q6,chameleon,0,somewhat_unfamiliar,chameleon.png,BOSS,n,,10.18,12,,,y,10.18,10.18
p005,survey-likert,144955,"[0,1,2,3,4,5,6,7,8,9,10,11,12,13,14,15,16,17,18,19,20,21,22,23,24,25,26,27,28,29,30,31,32,33,34,35,36,37,38,39]",,Q7,turtle,4,familiar,turtle.png,BOSS,n,,4.17,2,,,y,4.17,4.17
p005,survey-likert,144955,"[0,1,2,3,4,5,6,7,8,9,10,11,12,13,14,15,16,17,18,19,20,21,22,23,24,25,26,27,28,29,30,31,32,33,34,35,36,37,38,39]",,Q8,cat,4,familiar,cat.png,CATegories,n,,3.68,2,,,fam,3.68,3.68
p005,survey-likert,144955,"[0,1,2,3,4,5,6,7,8,9,10,11,12,13,14,15,16,17,18,19,20,21,22,23,24,25,26,27,28,29,30,31,32,33,34,35,36,37,38,39]",,Q9,cormorant,NA,unfamiliar,cormorant.png,BOSS,n,,14.22,13,,,y,14.22,14.22
p005,survey-likert,144955,"[0,1,2,3,4,5,6,7,8,9,10,11,12,13,14,15,16,17,18,19,20,21,22,23,24,25,26,27,28,29,30,31,32,33,34,35,36,37,38,39]",,Q10,tarsier,0,unfamiliar,tarsier.jpeg,Wikimedia,y,,NA,NA,,,y,14.22,14.22
p005,survey-likert,144955,"[0,1,2,3,4,5,6,7,8,9,10,11,12,13,14,15,16,17,18,19,20,21,22,23,24,25,26,27,28,29,30,31,32,33,34,35,36,37,38,39]",,Q11,aardvark,0,somewhat_unfamiliar,aardvark.jpg,chen,y,,9.89,14,,,y,9.89,9.89
p005,survey-likert,144955,"[0,1,2,3,4,5,6,7,8,9,10,11,12,13,14,15,16,17,18,19,20,21,22,23,24,25,26,27,28,29,30,31,32,33,34,35,36,37,38,39]",,Q12,alpaca,1,somewhat_unfamiliar,alpaca.jpg,dimy,y,,10.81,12,,,y,10.81,10.81
p005,survey-likert,144955,"[0,1,2,3,4,5,6,7,8,9,10,11,12,13,14,15,16,17,18,19,20,21,22,23,24,25,26,27,28,29,30,31,32,33,34,35,36,37,38,39]",,Q13,pig,5,familiar,pig.png,BOSS,n,,3.84,2,,,y,3.84,3.84
p005,survey-likert,144955,"[0,1,2,3,4,5,6,7,8,9,10,11,12,13,14,15,16,17,18,19,20,21,22,23,24,25,26,27,28,29,30,31,32,33,34,35,36,37,38,39]",,Q14,porcupine,2,somewhat_familiar,porcupine.png,BOSS,n,,6.89,6,,,y,6.89,6.89
p005,survey-likert,144955,"[0,1,2,3,4,5,6,7,8,9,10,11,12,13,14,15,16,17,18,19,20,21,22,23,24,25,26,27,28,29,30,31,32,33,34,35,36,37,38,39]",,Q15,frog,4,familiar,frog.png,CARE,n,,4.32,2,,,fam,4.32,4.32
p005,survey-likert,144955,"[0,1,2,3,4,5,6,7,8,9,10,11,12,13,14,15,16,17,18,19,20,21,22,23,24,25,26,27,28,29,30,31,32,33,34,35,36,37,38,39]",,Q16,jaguar,3,somewhat_familiar,jaguar.png,BOSS,n,,7.78,4,,,y,7.78,7.78
p005,survey-likert,144955,"[0,1,2,3,4,5,6,7,8,9,10,11,12,13,14,15,16,17,18,19,20,21,22,23,24,25,26,27,28,29,30,31,32,33,34,35,36,37,38,39]",,Q17,dolphin,4,somewhat_familiar,dolphin.png,BOSS,n,,6.05,10,,,y,6.05,6.05
p005,survey-likert,144955,"[0,1,2,3,4,5,6,7,8,9,10,11,12,13,14,15,16,17,18,19,20,21,22,23,24,25,26,27,28,29,30,31,32,33,34,35,36,37,38,39]",,Q18,butterfly,4,familiar,butterfly.png,BOSS,n,,3.67,2,,,fam,3.67,3.67
p005,survey-likert,144955,"[0,1,2,3,4,5,6,7,8,9,10,11,12,13,14,15,16,17,18,19,20,21,22,23,24,25,26,27,28,29,30,31,32,33,34,35,36,37,38,39]",,Q19,pangolin,0,unfamiliar,pangolin.jpg,dimy,n,,NA,13,,,y,14.22,14.22
p005,survey-likert,144955,"[0,1,2,3,4,5,6,7,8,9,10,11,12,13,14,15,16,17,18,19,20,21,22,23,24,25,26,27,28,29,30,31,32,33,34,35,36,37,38,39]",,Q20,flamingo,3,somewhat_familiar,flamingo.png,BOSS,n,,6.32,6,,,y,6.32,6.32
p005,survey-likert,144955,"[0,1,2,3,4,5,6,7,8,9,10,11,12,13,14,15,16,17,18,19,20,21,22,23,24,25,26,27,28,29,30,31,32,33,34,35,36,37,38,39]",,Q21,hippopotamus,2,somewhat_familiar,hippopotamus.png,BOSS,n,,7,4,,,y,7,7
p005,survey-likert,144955,"[0,1,2,3,4,5,6,7,8,9,10,11,12,13,14,15,16,17,18,19,20,21,22,23,24,25,26,27,28,29,30,31,32,33,34,35,36,37,38,39]",,Q22,sloth,1,somewhat_unfamiliar,sloth.jpg,chen,y,,8.37,12,,,y,8.37,8.37
p005,survey-likert,144955,"[0,1,2,3,4,5,6,7,8,9,10,11,12,13,14,15,16,17,18,19,20,21,22,23,24,25,26,27,28,29,30,31,32,33,34,35,36,37,38,39]",,Q23,lynx,0,unfamiliar,lynx.png,BOSS,n,,10.53,13,,,y,10.53,10.53
p005,survey-likert,144955,"[0,1,2,3,4,5,6,7,8,9,10,11,12,13,14,15,16,17,18,19,20,21,22,23,24,25,26,27,28,29,30,31,32,33,34,35,36,37,38,39]",,Q24,horse,4,familiar,horse.png,BOSS,n,,4.15,2,,,fam,4.15,4.15
p005,survey-likert,144955,"[0,1,2,3,4,5,6,7,8,9,10,11,12,13,14,15,16,17,18,19,20,21,22,23,24,25,26,27,28,29,30,31,32,33,34,35,36,37,38,39]",,Q25,cow,4,familiar,cow.png,BOSS,n,,3.94,2,,,fam,3.94,3.94
p005,survey-likert,144955,"[0,1,2,3,4,5,6,7,8,9,10,11,12,13,14,15,16,17,18,19,20,21,22,23,24,25,26,27,28,29,30,31,32,33,34,35,36,37,38,39]",,Q26,wombat,0,unfamiliar,editing_needed,dimy,y,,11.31,13,,,y,11.31,11.31
p005,survey-likert,144955,"[0,1,2,3,4,5,6,7,8,9,10,11,12,13,14,15,16,17,18,19,20,21,22,23,24,25,26,27,28,29,30,31,32,33,34,35,36,37,38,39]",,Q27,dog,4,familiar,dog.png,CATegories,n,,2.8,2,,,y,2.8,2.8
p005,survey-likert,144955,"[0,1,2,3,4,5,6,7,8,9,10,11,12,13,14,15,16,17,18,19,20,21,22,23,24,25,26,27,28,29,30,31,32,33,34,35,36,37,38,39]",,Q28,rabbit,5,familiar,rabbit.png,BOSS,n,,3.94,2,,,y,3.94,3.94
p005,survey-likert,144955,"[0,1,2,3,4,5,6,7,8,9,10,11,12,13,14,15,16,17,18,19,20,21,22,23,24,25,26,27,28,29,30,31,32,33,34,35,36,37,38,39]",,Q29,antelope,0,somewhat_unfamiliar,antelope.png,BOSS,n,,8.39,4,,,y,8.39,8.39
p005,survey-likert,144955,"[0,1,2,3,4,5,6,7,8,9,10,11,12,13,14,15,16,17,18,19,20,21,22,23,24,25,26,27,28,29,30,31,32,33,34,35,36,37,38,39]",,Q30,narwhal,0,unfamiliar,narwhal.png,BOSS,n,,12.14,12,,,y,12.14,12.14
p005,survey-likert,144955,"[0,1,2,3,4,5,6,7,8,9,10,11,12,13,14,15,16,17,18,19,20,21,22,23,24,25,26,27,28,29,30,31,32,33,34,35,36,37,38,39]",,Q31,armadillo,1,somewhat_unfamiliar,armadillo.jpg,dimy,y,,8.608885,8,,,y,8.608885,8.608885
p005,survey-likert,144955,"[0,1,2,3,4,5,6,7,8,9,10,11,12,13,14,15,16,17,18,19,20,21,22,23,24,25,26,27,28,29,30,31,32,33,34,35,36,37,38,39]",,Q32,tiger,4,familiar,tiger.png,BOSS,n,,4,2,,,y,4,4
p005,survey-likert,144955,"[0,1,2,3,4,5,6,7,8,9,10,11,12,13,14,15,16,17,18,19,20,21,22,23,24,25,26,27,28,29,30,31,32,33,34,35,36,37,38,39]",,Q33,lobster,2,somewhat_familiar,lobster.png,BOSS,n,,7.44,2,,,y,7.44,7.44
p005,survey-likert,144955,"[0,1,2,3,4,5,6,7,8,9,10,11,12,13,14,15,16,17,18,19,20,21,22,23,24,25,26,27,28,29,30,31,32,33,34,35,36,37,38,39]",,Q34,echidna,0,unfamiliar,echidna.jpg,chen,y,,NA,12,,,y,14.22,14.22
p005,survey-likert,144955,"[0,1,2,3,4,5,6,7,8,9,10,11,12,13,14,15,16,17,18,19,20,21,22,23,24,25,26,27,28,29,30,31,32,33,34,35,36,37,38,39]",,Q35,raccoon,1,somewhat_familiar,raccoon.png,BOSS,n,,6.79,2,,,y,6.79,6.79
p005,survey-likert,144955,"[0,1,2,3,4,5,6,7,8,9,10,11,12,13,14,15,16,17,18,19,20,21,22,23,24,25,26,27,28,29,30,31,32,33,34,35,36,37,38,39]",,Q36,squirrel,3,familiar,squirrel.png,BOSS,n,,4.44,2,N,not a great picture,fam,4.44,4.44
p005,survey-likert,144955,"[0,1,2,3,4,5,6,7,8,9,10,11,12,13,14,15,16,17,18,19,20,21,22,23,24,25,26,27,28,29,30,31,32,33,34,35,36,37,38,39]",,Q37,manatee,0,somewhat_unfamiliar,manatee.jpg,Moreno,y,,10.56,14,,,y,10.56,10.56
p005,survey-likert,144955,"[0,1,2,3,4,5,6,7,8,9,10,11,12,13,14,15,16,17,18,19,20,21,22,23,24,25,26,27,28,29,30,31,32,33,34,35,36,37,38,39]",,Q38,bear,4,familiar,bear.png,BOSS,n,,3.58,2,,,y,3.58,3.58
p005,survey-likert,144955,"[0,1,2,3,4,5,6,7,8,9,10,11,12,13,14,15,16,17,18,19,20,21,22,23,24,25,26,27,28,29,30,31,32,33,34,35,36,37,38,39]",,Q39,zebra,3,familiar,zebra.png,BOSS,n,,4.79,2,,,y,4.79,4.79
p006,survey-likert,101429.00000000001,"[0,1,2,3,4,5,6,7,8,9,10,11,12,13,14,15,16,17,18,19,20,21,22,23,24,25,26,27,28,29,30,31,32,33,34,35,36,37,38,39]",,Q0,sloth,3,somewhat_unfamiliar,sloth.jpg,chen,y,,8.37,12,,,y,8.37,8.37
p006,survey-likert,101429.00000000001,"[0,1,2,3,4,5,6,7,8,9,10,11,12,13,14,15,16,17,18,19,20,21,22,23,24,25,26,27,28,29,30,31,32,33,34,35,36,37,38,39]",,Q1,wolf,4,familiar,wolf.png,BOSS,n,,4.5,2,,,fam,4.5,4.5
p006,survey-likert,101429.00000000001,"[0,1,2,3,4,5,6,7,8,9,10,11,12,13,14,15,16,17,18,19,20,21,22,23,24,25,26,27,28,29,30,31,32,33,34,35,36,37,38,39]",,Q2,bear,5,familiar,bear.png,BOSS,n,,3.58,2,,,y,3.58,3.58
p006,survey-likert,101429.00000000001,"[0,1,2,3,4,5,6,7,8,9,10,11,12,13,14,15,16,17,18,19,20,21,22,23,24,25,26,27,28,29,30,31,32,33,34,35,36,37,38,39]",,Q3,armadillo,2,somewhat_unfamiliar,armadillo.jpg,dimy,y,,8.608885,8,,,y,8.608885,8.608885
p006,survey-likert,101429.00000000001,"[0,1,2,3,4,5,6,7,8,9,10,11,12,13,14,15,16,17,18,19,20,21,22,23,24,25,26,27,28,29,30,31,32,33,34,35,36,37,38,39]",,Q4,nyala,0,unfamiliar,nyala.png,BOSS,n,,NA,NA,,,y,14.22,14.22
p006,survey-likert,101429.00000000001,"[0,1,2,3,4,5,6,7,8,9,10,11,12,13,14,15,16,17,18,19,20,21,22,23,24,25,26,27,28,29,30,31,32,33,34,35,36,37,38,39]",,Q5,horse,4,familiar,horse.png,BOSS,n,,4.15,2,,,fam,4.15,4.15
p006,survey-likert,101429.00000000001,"[0,1,2,3,4,5,6,7,8,9,10,11,12,13,14,15,16,17,18,19,20,21,22,23,24,25,26,27,28,29,30,31,32,33,34,35,36,37,38,39]",,Q6,raccoon,3,somewhat_familiar,raccoon.png,BOSS,n,,6.79,2,,,y,6.79,6.79
p006,survey-likert,101429.00000000001,"[0,1,2,3,4,5,6,7,8,9,10,11,12,13,14,15,16,17,18,19,20,21,22,23,24,25,26,27,28,29,30,31,32,33,34,35,36,37,38,39]",,Q7,alpaca,0,somewhat_unfamiliar,alpaca.jpg,dimy,y,,10.81,12,,,y,10.81,10.81
p006,survey-likert,101429.00000000001,"[0,1,2,3,4,5,6,7,8,9,10,11,12,13,14,15,16,17,18,19,20,21,22,23,24,25,26,27,28,29,30,31,32,33,34,35,36,37,38,39]",,Q8,hippopotamus,3,somewhat_familiar,hippopotamus.png,BOSS,n,,7,4,,,y,7,7
p006,survey-likert,101429.00000000001,"[0,1,2,3,4,5,6,7,8,9,10,11,12,13,14,15,16,17,18,19,20,21,22,23,24,25,26,27,28,29,30,31,32,33,34,35,36,37,38,39]",,Q9,tarsier,0,unfamiliar,tarsier.jpeg,Wikimedia,y,,NA,NA,,,y,14.22,14.22
p006,survey-likert,101429.00000000001,"[0,1,2,3,4,5,6,7,8,9,10,11,12,13,14,15,16,17,18,19,20,21,22,23,24,25,26,27,28,29,30,31,32,33,34,35,36,37,38,39]",,Q10,rabbit,4,familiar,rabbit.png,BOSS,n,,3.94,2,,,y,3.94,3.94
p006,survey-likert,101429.00000000001,"[0,1,2,3,4,5,6,7,8,9,10,11,12,13,14,15,16,17,18,19,20,21,22,23,24,25,26,27,28,29,30,31,32,33,34,35,36,37,38,39]",,Q11,zebra,4,familiar,zebra.png,BOSS,n,,4.79,2,,,y,4.79,4.79
p006,survey-likert,101429.00000000001,"[0,1,2,3,4,5,6,7,8,9,10,11,12,13,14,15,16,17,18,19,20,21,22,23,24,25,26,27,28,29,30,31,32,33,34,35,36,37,38,39]",,Q12,echidna,1,unfamiliar,echidna.jpg,chen,y,,NA,12,,,y,14.22,14.22
p006,survey-likert,101429.00000000001,"[0,1,2,3,4,5,6,7,8,9,10,11,12,13,14,15,16,17,18,19,20,21,22,23,24,25,26,27,28,29,30,31,32,33,34,35,36,37,38,39]",,Q13,frog,4,familiar,frog.png,CARE,n,,4.32,2,,,fam,4.32,4.32
p006,survey-likert,101429.00000000001,"[0,1,2,3,4,5,6,7,8,9,10,11,12,13,14,15,16,17,18,19,20,21,22,23,24,25,26,27,28,29,30,31,32,33,34,35,36,37,38,39]",,Q14,cormorant,0,unfamiliar,cormorant.png,BOSS,n,,14.22,13,,,y,14.22,14.22
p006,survey-likert,101429.00000000001,"[0,1,2,3,4,5,6,7,8,9,10,11,12,13,14,15,16,17,18,19,20,21,22,23,24,25,26,27,28,29,30,31,32,33,34,35,36,37,38,39]",,Q15,turtle,4,familiar,turtle.png,BOSS,n,,4.17,2,,,y,4.17,4.17
p006,survey-likert,101429.00000000001,"[0,1,2,3,4,5,6,7,8,9,10,11,12,13,14,15,16,17,18,19,20,21,22,23,24,25,26,27,28,29,30,31,32,33,34,35,36,37,38,39]",,Q16,elephant,5,familiar,elephant.png,BOSS,n,,4.8,2,,,y,4.8,4.8
p006,survey-likert,101429.00000000001,"[0,1,2,3,4,5,6,7,8,9,10,11,12,13,14,15,16,17,18,19,20,21,22,23,24,25,26,27,28,29,30,31,32,33,34,35,36,37,38,39]",,Q17,narwhal,2,unfamiliar,narwhal.png,BOSS,n,,12.14,12,,,y,12.14,12.14
p006,survey-likert,101429.00000000001,"[0,1,2,3,4,5,6,7,8,9,10,11,12,13,14,15,16,17,18,19,20,21,22,23,24,25,26,27,28,29,30,31,32,33,34,35,36,37,38,39]",,Q18,pangolin,2,unfamiliar,pangolin.jpg,dimy,n,,NA,13,,,y,14.22,14.22
p006,survey-likert,101429.00000000001,"[0,1,2,3,4,5,6,7,8,9,10,11,12,13,14,15,16,17,18,19,20,21,22,23,24,25,26,27,28,29,30,31,32,33,34,35,36,37,38,39]",,Q19,dolphin,2,somewhat_familiar,dolphin.png,BOSS,n,,6.05,10,,,y,6.05,6.05
p006,survey-likert,101429.00000000001,"[0,1,2,3,4,5,6,7,8,9,10,11,12,13,14,15,16,17,18,19,20,21,22,23,24,25,26,27,28,29,30,31,32,33,34,35,36,37,38,39]",,Q20,tapir,0,unfamiliar,editing_needed,dimy,y,,11.23,13,,,y,11.23,11.23
p006,survey-likert,101429.00000000001,"[0,1,2,3,4,5,6,7,8,9,10,11,12,13,14,15,16,17,18,19,20,21,22,23,24,25,26,27,28,29,30,31,32,33,34,35,36,37,38,39]",,Q21,jaguar,2,somewhat_familiar,jaguar.png,BOSS,n,,7.78,4,,,y,7.78,7.78
p006,survey-likert,101429.00000000001,"[0,1,2,3,4,5,6,7,8,9,10,11,12,13,14,15,16,17,18,19,20,21,22,23,24,25,26,27,28,29,30,31,32,33,34,35,36,37,38,39]",,Q22,lobster,1,somewhat_familiar,lobster.png,BOSS,n,,7.44,2,,,y,7.44,7.44
p006,survey-likert,101429.00000000001,"[0,1,2,3,4,5,6,7,8,9,10,11,12,13,14,15,16,17,18,19,20,21,22,23,24,25,26,27,28,29,30,31,32,33,34,35,36,37,38,39]",,Q23,duck,4,familiar,duck.png,MEM,n,,3.5,2,,,fam,3.5,3.5
p006,survey-likert,101429.00000000001,"[0,1,2,3,4,5,6,7,8,9,10,11,12,13,14,15,16,17,18,19,20,21,22,23,24,25,26,27,28,29,30,31,32,33,34,35,36,37,38,39]",,Q24,pig,5,familiar,pig.png,BOSS,n,,3.84,2,,,y,3.84,3.84
p006,survey-likert,101429.00000000001,"[0,1,2,3,4,5,6,7,8,9,10,11,12,13,14,15,16,17,18,19,20,21,22,23,24,25,26,27,28,29,30,31,32,33,34,35,36,37,38,39]",,Q25,squirrel,4,familiar,squirrel.png,BOSS,n,,4.44,2,N,not a great picture,fam,4.44,4.44
p006,survey-likert,101429.00000000001,"[0,1,2,3,4,5,6,7,8,9,10,11,12,13,14,15,16,17,18,19,20,21,22,23,24,25,26,27,28,29,30,31,32,33,34,35,36,37,38,39]",,Q26,lynx,0,unfamiliar,lynx.png,BOSS,n,,10.53,13,,,y,10.53,10.53
p006,survey-likert,101429.00000000001,"[0,1,2,3,4,5,6,7,8,9,10,11,12,13,14,15,16,17,18,19,20,21,22,23,24,25,26,27,28,29,30,31,32,33,34,35,36,37,38,39]",,Q27,manatee,1,somewhat_unfamiliar,manatee.jpg,Moreno,y,,10.56,14,,,y,10.56,10.56
p006,survey-likert,101429.00000000001,"[0,1,2,3,4,5,6,7,8,9,10,11,12,13,14,15,16,17,18,19,20,21,22,23,24,25,26,27,28,29,30,31,32,33,34,35,36,37,38,39]",,Q28,cat,5,familiar,cat.png,CATegories,n,,3.68,2,,,fam,3.68,3.68
p006,survey-likert,101429.00000000001,"[0,1,2,3,4,5,6,7,8,9,10,11,12,13,14,15,16,17,18,19,20,21,22,23,24,25,26,27,28,29,30,31,32,33,34,35,36,37,38,39]",,Q29,koala,5,somewhat_familiar,koala.jpg,dimy,y,,6,10,,,y,6,6
p006,survey-likert,101429.00000000001,"[0,1,2,3,4,5,6,7,8,9,10,11,12,13,14,15,16,17,18,19,20,21,22,23,24,25,26,27,28,29,30,31,32,33,34,35,36,37,38,39]",,Q30,tiger,5,familiar,tiger.png,BOSS,n,,4,2,,,y,4,4
p006,survey-likert,101429.00000000001,"[0,1,2,3,4,5,6,7,8,9,10,11,12,13,14,15,16,17,18,19,20,21,22,23,24,25,26,27,28,29,30,31,32,33,34,35,36,37,38,39]",,Q31,chameleon,1,somewhat_unfamiliar,chameleon.png,BOSS,n,,10.18,12,,,y,10.18,10.18
p006,survey-likert,101429.00000000001,"[0,1,2,3,4,5,6,7,8,9,10,11,12,13,14,15,16,17,18,19,20,21,22,23,24,25,26,27,28,29,30,31,32,33,34,35,36,37,38,39]",,Q32,porcupine,0,somewhat_familiar,porcupine.png,BOSS,n,,6.89,6,,,y,6.89,6.89
p006,survey-likert,101429.00000000001,"[0,1,2,3,4,5,6,7,8,9,10,11,12,13,14,15,16,17,18,19,20,21,22,23,24,25,26,27,28,29,30,31,32,33,34,35,36,37,38,39]",,Q33,dog,5,familiar,dog.png,CATegories,n,,2.8,2,,,y,2.8,2.8
p006,survey-likert,101429.00000000001,"[0,1,2,3,4,5,6,7,8,9,10,11,12,13,14,15,16,17,18,19,20,21,22,23,24,25,26,27,28,29,30,31,32,33,34,35,36,37,38,39]",,Q34,cow,5,familiar,cow.png,BOSS,n,,3.94,2,,,fam,3.94,3.94
p006,survey-likert,101429.00000000001,"[0,1,2,3,4,5,6,7,8,9,10,11,12,13,14,15,16,17,18,19,20,21,22,23,24,25,26,27,28,29,30,31,32,33,34,35,36,37,38,39]",,Q35,aardvark,0,somewhat_unfamiliar,aardvark.jpg,chen,y,,9.89,14,,,y,9.89,9.89
p006,survey-likert,101429.00000000001,"[0,1,2,3,4,5,6,7,8,9,10,11,12,13,14,15,16,17,18,19,20,21,22,23,24,25,26,27,28,29,30,31,32,33,34,35,36,37,38,39]",,Q36,wombat,1,unfamiliar,editing_needed,dimy,y,,11.31,13,,,y,11.31,11.31
p006,survey-likert,101429.00000000001,"[0,1,2,3,4,5,6,7,8,9,10,11,12,13,14,15,16,17,18,19,20,21,22,23,24,25,26,27,28,29,30,31,32,33,34,35,36,37,38,39]",,Q37,antelope,1,somewhat_unfamiliar,antelope.png,BOSS,n,,8.39,4,,,y,8.39,8.39
p006,survey-likert,101429.00000000001,"[0,1,2,3,4,5,6,7,8,9,10,11,12,13,14,15,16,17,18,19,20,21,22,23,24,25,26,27,28,29,30,31,32,33,34,35,36,37,38,39]",,Q38,butterfly,5,familiar,butterfly.png,BOSS,n,,3.67,2,,,fam,3.67,3.67
p006,survey-likert,101429.00000000001,"[0,1,2,3,4,5,6,7,8,9,10,11,12,13,14,15,16,17,18,19,20,21,22,23,24,25,26,27,28,29,30,31,32,33,34,35,36,37,38,39]",,Q39,flamingo,5,somewhat_familiar,flamingo.png,BOSS,n,,6.32,6,,,y,6.32,6.32
p007,survey-likert,98609,"[0,1,2,3,4,5,6,7,8,9,10,11,12,13,14,15,16,17,18,19,20,21,22,23,24,25,26,27,28,29,30,31,32,33,34,35,36,37,38,39]",,Q0,hippopotamus,5,somewhat_familiar,hippopotamus.png,BOSS,n,,7,4,,,y,7,7
p007,survey-likert,98609,"[0,1,2,3,4,5,6,7,8,9,10,11,12,13,14,15,16,17,18,19,20,21,22,23,24,25,26,27,28,29,30,31,32,33,34,35,36,37,38,39]",,Q1,wolf,5,familiar,wolf.png,BOSS,n,,4.5,2,,,fam,4.5,4.5
p007,survey-likert,98609,"[0,1,2,3,4,5,6,7,8,9,10,11,12,13,14,15,16,17,18,19,20,21,22,23,24,25,26,27,28,29,30,31,32,33,34,35,36,37,38,39]",,Q2,flamingo,5,somewhat_familiar,flamingo.png,BOSS,n,,6.32,6,,,y,6.32,6.32
p007,survey-likert,98609,"[0,1,2,3,4,5,6,7,8,9,10,11,12,13,14,15,16,17,18,19,20,21,22,23,24,25,26,27,28,29,30,31,32,33,34,35,36,37,38,39]",,Q3,jaguar,4,somewhat_familiar,jaguar.png,BOSS,n,,7.78,4,,,y,7.78,7.78
p007,survey-likert,98609,"[0,1,2,3,4,5,6,7,8,9,10,11,12,13,14,15,16,17,18,19,20,21,22,23,24,25,26,27,28,29,30,31,32,33,34,35,36,37,38,39]",,Q4,squirrel,5,familiar,squirrel.png,BOSS,n,,4.44,2,N,not a great picture,fam,4.44,4.44
p007,survey-likert,98609,"[0,1,2,3,4,5,6,7,8,9,10,11,12,13,14,15,16,17,18,19,20,21,22,23,24,25,26,27,28,29,30,31,32,33,34,35,36,37,38,39]",,Q5,lobster,3,somewhat_familiar,lobster.png,BOSS,n,,7.44,2,,,y,7.44,7.44
p007,survey-likert,98609,"[0,1,2,3,4,5,6,7,8,9,10,11,12,13,14,15,16,17,18,19,20,21,22,23,24,25,26,27,28,29,30,31,32,33,34,35,36,37,38,39]",,Q6,aardvark,1,somewhat_unfamiliar,aardvark.jpg,chen,y,,9.89,14,,,y,9.89,9.89
p007,survey-likert,98609,"[0,1,2,3,4,5,6,7,8,9,10,11,12,13,14,15,16,17,18,19,20,21,22,23,24,25,26,27,28,29,30,31,32,33,34,35,36,37,38,39]",,Q7,cat,5,familiar,cat.png,CATegories,n,,3.68,2,,,fam,3.68,3.68
p007,survey-likert,98609,"[0,1,2,3,4,5,6,7,8,9,10,11,12,13,14,15,16,17,18,19,20,21,22,23,24,25,26,27,28,29,30,31,32,33,34,35,36,37,38,39]",,Q8,rabbit,5,familiar,rabbit.png,BOSS,n,,3.94,2,,,y,3.94,3.94
p007,survey-likert,98609,"[0,1,2,3,4,5,6,7,8,9,10,11,12,13,14,15,16,17,18,19,20,21,22,23,24,25,26,27,28,29,30,31,32,33,34,35,36,37,38,39]",,Q9,butterfly,5,familiar,butterfly.png,BOSS,n,,3.67,2,,,fam,3.67,3.67
p007,survey-likert,98609,"[0,1,2,3,4,5,6,7,8,9,10,11,12,13,14,15,16,17,18,19,20,21,22,23,24,25,26,27,28,29,30,31,32,33,34,35,36,37,38,39]",,Q10,porcupine,4,somewhat_familiar,porcupine.png,BOSS,n,,6.89,6,,,y,6.89,6.89
p007,survey-likert,98609,"[0,1,2,3,4,5,6,7,8,9,10,11,12,13,14,15,16,17,18,19,20,21,22,23,24,25,26,27,28,29,30,31,32,33,34,35,36,37,38,39]",,Q11,elephant,5,familiar,elephant.png,BOSS,n,,4.8,2,,,y,4.8,4.8
p007,survey-likert,98609,"[0,1,2,3,4,5,6,7,8,9,10,11,12,13,14,15,16,17,18,19,20,21,22,23,24,25,26,27,28,29,30,31,32,33,34,35,36,37,38,39]",,Q12,pig,5,familiar,pig.png,BOSS,n,,3.84,2,,,y,3.84,3.84
p007,survey-likert,98609,"[0,1,2,3,4,5,6,7,8,9,10,11,12,13,14,15,16,17,18,19,20,21,22,23,24,25,26,27,28,29,30,31,32,33,34,35,36,37,38,39]",,Q13,lynx,1,unfamiliar,lynx.png,BOSS,n,,10.53,13,,,y,10.53,10.53
p007,survey-likert,98609,"[0,1,2,3,4,5,6,7,8,9,10,11,12,13,14,15,16,17,18,19,20,21,22,23,24,25,26,27,28,29,30,31,32,33,34,35,36,37,38,39]",,Q14,antelope,1,somewhat_unfamiliar,antelope.png,BOSS,n,,8.39,4,,,y,8.39,8.39
p007,survey-likert,98609,"[0,1,2,3,4,5,6,7,8,9,10,11,12,13,14,15,16,17,18,19,20,21,22,23,24,25,26,27,28,29,30,31,32,33,34,35,36,37,38,39]",,Q15,wombat,0,unfamiliar,editing_needed,dimy,y,,11.31,13,,,y,11.31,11.31
p007,survey-likert,98609,"[0,1,2,3,4,5,6,7,8,9,10,11,12,13,14,15,16,17,18,19,20,21,22,23,24,25,26,27,28,29,30,31,32,33,34,35,36,37,38,39]",,Q16,alpaca,5,somewhat_unfamiliar,alpaca.jpg,dimy,y,,10.81,12,,,y,10.81,10.81
p007,survey-likert,98609,"[0,1,2,3,4,5,6,7,8,9,10,11,12,13,14,15,16,17,18,19,20,21,22,23,24,25,26,27,28,29,30,31,32,33,34,35,36,37,38,39]",,Q17,nyala,0,unfamiliar,nyala.png,BOSS,n,,NA,NA,,,y,14.22,14.22
p007,survey-likert,98609,"[0,1,2,3,4,5,6,7,8,9,10,11,12,13,14,15,16,17,18,19,20,21,22,23,24,25,26,27,28,29,30,31,32,33,34,35,36,37,38,39]",,Q18,echidna,0,unfamiliar,echidna.jpg,chen,y,,NA,12,,,y,14.22,14.22
p007,survey-likert,98609,"[0,1,2,3,4,5,6,7,8,9,10,11,12,13,14,15,16,17,18,19,20,21,22,23,24,25,26,27,28,29,30,31,32,33,34,35,36,37,38,39]",,Q19,dolphin,5,somewhat_familiar,dolphin.png,BOSS,n,,6.05,10,,,y,6.05,6.05
p007,survey-likert,98609,"[0,1,2,3,4,5,6,7,8,9,10,11,12,13,14,15,16,17,18,19,20,21,22,23,24,25,26,27,28,29,30,31,32,33,34,35,36,37,38,39]",,Q20,horse,5,familiar,horse.png,BOSS,n,,4.15,2,,,fam,4.15,4.15
p007,survey-likert,98609,"[0,1,2,3,4,5,6,7,8,9,10,11,12,13,14,15,16,17,18,19,20,21,22,23,24,25,26,27,28,29,30,31,32,33,34,35,36,37,38,39]",,Q21,manatee,1,somewhat_unfamiliar,manatee.jpg,Moreno,y,,10.56,14,,,y,10.56,10.56
p007,survey-likert,98609,"[0,1,2,3,4,5,6,7,8,9,10,11,12,13,14,15,16,17,18,19,20,21,22,23,24,25,26,27,28,29,30,31,32,33,34,35,36,37,38,39]",,Q22,armadillo,0,somewhat_unfamiliar,armadillo.jpg,dimy,y,,8.608885,8,,,y,8.608885,8.608885
p007,survey-likert,98609,"[0,1,2,3,4,5,6,7,8,9,10,11,12,13,14,15,16,17,18,19,20,21,22,23,24,25,26,27,28,29,30,31,32,33,34,35,36,37,38,39]",,Q23,pangolin,0,unfamiliar,pangolin.jpg,dimy,n,,NA,13,,,y,14.22,14.22
p007,survey-likert,98609,"[0,1,2,3,4,5,6,7,8,9,10,11,12,13,14,15,16,17,18,19,20,21,22,23,24,25,26,27,28,29,30,31,32,33,34,35,36,37,38,39]",,Q24,tapir,0,unfamiliar,editing_needed,dimy,y,,11.23,13,,,y,11.23,11.23
p007,survey-likert,98609,"[0,1,2,3,4,5,6,7,8,9,10,11,12,13,14,15,16,17,18,19,20,21,22,23,24,25,26,27,28,29,30,31,32,33,34,35,36,37,38,39]",,Q25,zebra,5,familiar,zebra.png,BOSS,n,,4.79,2,,,y,4.79,4.79
p007,survey-likert,98609,"[0,1,2,3,4,5,6,7,8,9,10,11,12,13,14,15,16,17,18,19,20,21,22,23,24,25,26,27,28,29,30,31,32,33,34,35,36,37,38,39]",,Q26,koala,5,somewhat_familiar,koala.jpg,dimy,y,,6,10,,,y,6,6
p007,survey-likert,98609,"[0,1,2,3,4,5,6,7,8,9,10,11,12,13,14,15,16,17,18,19,20,21,22,23,24,25,26,27,28,29,30,31,32,33,34,35,36,37,38,39]",,Q27,cow,5,familiar,cow.png,BOSS,n,,3.94,2,,,fam,3.94,3.94
p007,survey-likert,98609,"[0,1,2,3,4,5,6,7,8,9,10,11,12,13,14,15,16,17,18,19,20,21,22,23,24,25,26,27,28,29,30,31,32,33,34,35,36,37,38,39]",,Q28,raccoon,5,somewhat_familiar,raccoon.png,BOSS,n,,6.79,2,,,y,6.79,6.79
p007,survey-likert,98609,"[0,1,2,3,4,5,6,7,8,9,10,11,12,13,14,15,16,17,18,19,20,21,22,23,24,25,26,27,28,29,30,31,32,33,34,35,36,37,38,39]",,Q29,duck,5,familiar,duck.png,MEM,n,,3.5,2,,,fam,3.5,3.5
p007,survey-likert,98609,"[0,1,2,3,4,5,6,7,8,9,10,11,12,13,14,15,16,17,18,19,20,21,22,23,24,25,26,27,28,29,30,31,32,33,34,35,36,37,38,39]",,Q30,turtle,5,familiar,turtle.png,BOSS,n,,4.17,2,,,y,4.17,4.17
p007,survey-likert,98609,"[0,1,2,3,4,5,6,7,8,9,10,11,12,13,14,15,16,17,18,19,20,21,22,23,24,25,26,27,28,29,30,31,32,33,34,35,36,37,38,39]",,Q31,cormorant,0,unfamiliar,cormorant.png,BOSS,n,,14.22,13,,,y,14.22,14.22
p007,survey-likert,98609,"[0,1,2,3,4,5,6,7,8,9,10,11,12,13,14,15,16,17,18,19,20,21,22,23,24,25,26,27,28,29,30,31,32,33,34,35,36,37,38,39]",,Q32,tarsier,0,unfamiliar,tarsier.jpeg,Wikimedia,y,,NA,NA,,,y,14.22,14.22
p007,survey-likert,98609,"[0,1,2,3,4,5,6,7,8,9,10,11,12,13,14,15,16,17,18,19,20,21,22,23,24,25,26,27,28,29,30,31,32,33,34,35,36,37,38,39]",,Q33,narwhal,5,unfamiliar,narwhal.png,BOSS,n,,12.14,12,,,y,12.14,12.14
p007,survey-likert,98609,"[0,1,2,3,4,5,6,7,8,9,10,11,12,13,14,15,16,17,18,19,20,21,22,23,24,25,26,27,28,29,30,31,32,33,34,35,36,37,38,39]",,Q34,bear,5,familiar,bear.png,BOSS,n,,3.58,2,,,y,3.58,3.58
p007,survey-likert,98609,"[0,1,2,3,4,5,6,7,8,9,10,11,12,13,14,15,16,17,18,19,20,21,22,23,24,25,26,27,28,29,30,31,32,33,34,35,36,37,38,39]",,Q35,sloth,5,somewhat_unfamiliar,sloth.jpg,chen,y,,8.37,12,,,y,8.37,8.37
p007,survey-likert,98609,"[0,1,2,3,4,5,6,7,8,9,10,11,12,13,14,15,16,17,18,19,20,21,22,23,24,25,26,27,28,29,30,31,32,33,34,35,36,37,38,39]",,Q36,frog,5,familiar,frog.png,CARE,n,,4.32,2,,,fam,4.32,4.32
p007,survey-likert,98609,"[0,1,2,3,4,5,6,7,8,9,10,11,12,13,14,15,16,17,18,19,20,21,22,23,24,25,26,27,28,29,30,31,32,33,34,35,36,37,38,39]",,Q37,tiger,5,familiar,tiger.png,BOSS,n,,4,2,,,y,4,4
p007,survey-likert,98609,"[0,1,2,3,4,5,6,7,8,9,10,11,12,13,14,15,16,17,18,19,20,21,22,23,24,25,26,27,28,29,30,31,32,33,34,35,36,37,38,39]",,Q38,dog,5,familiar,dog.png,CATegories,n,,2.8,2,,,y,2.8,2.8
p007,survey-likert,98609,"[0,1,2,3,4,5,6,7,8,9,10,11,12,13,14,15,16,17,18,19,20,21,22,23,24,25,26,27,28,29,30,31,32,33,34,35,36,37,38,39]",,Q39,chameleon,5,somewhat_unfamiliar,chameleon.png,BOSS,n,,10.18,12,,,y,10.18,10.18
p008,survey-likert,107448,"[0,1,2,3,4,5,6,7,8,9,10,11,12,13,14,15,16,17,18,19,20,21,22,23,24,25,26,27,28,29,30,31,32,33,34,35,36,37,38,39]",,Q0,manatee,0,somewhat_unfamiliar,manatee.jpg,Moreno,y,,10.56,14,,,y,10.56,10.56
p008,survey-likert,107448,"[0,1,2,3,4,5,6,7,8,9,10,11,12,13,14,15,16,17,18,19,20,21,22,23,24,25,26,27,28,29,30,31,32,33,34,35,36,37,38,39]",,Q1,pig,5,familiar,pig.png,BOSS,n,,3.84,2,,,y,3.84,3.84
p008,survey-likert,107448,"[0,1,2,3,4,5,6,7,8,9,10,11,12,13,14,15,16,17,18,19,20,21,22,23,24,25,26,27,28,29,30,31,32,33,34,35,36,37,38,39]",,Q2,raccoon,1,somewhat_familiar,raccoon.png,BOSS,n,,6.79,2,,,y,6.79,6.79
p008,survey-likert,107448,"[0,1,2,3,4,5,6,7,8,9,10,11,12,13,14,15,16,17,18,19,20,21,22,23,24,25,26,27,28,29,30,31,32,33,34,35,36,37,38,39]",,Q3,antelope,0,somewhat_unfamiliar,antelope.png,BOSS,n,,8.39,4,,,y,8.39,8.39
p008,survey-likert,107448,"[0,1,2,3,4,5,6,7,8,9,10,11,12,13,14,15,16,17,18,19,20,21,22,23,24,25,26,27,28,29,30,31,32,33,34,35,36,37,38,39]",,Q4,alpaca,0,somewhat_unfamiliar,alpaca.jpg,dimy,y,,10.81,12,,,y,10.81,10.81
p008,survey-likert,107448,"[0,1,2,3,4,5,6,7,8,9,10,11,12,13,14,15,16,17,18,19,20,21,22,23,24,25,26,27,28,29,30,31,32,33,34,35,36,37,38,39]",,Q5,tiger,4,familiar,tiger.png,BOSS,n,,4,2,,,y,4,4
p008,survey-likert,107448,"[0,1,2,3,4,5,6,7,8,9,10,11,12,13,14,15,16,17,18,19,20,21,22,23,24,25,26,27,28,29,30,31,32,33,34,35,36,37,38,39]",,Q6,dog,5,familiar,dog.png,CATegories,n,,2.8,2,,,y,2.8,2.8
p008,survey-likert,107448,"[0,1,2,3,4,5,6,7,8,9,10,11,12,13,14,15,16,17,18,19,20,21,22,23,24,25,26,27,28,29,30,31,32,33,34,35,36,37,38,39]",,Q7,tarsier,0,unfamiliar,tarsier.jpeg,Wikimedia,y,,NA,NA,,,y,14.22,14.22
p008,survey-likert,107448,"[0,1,2,3,4,5,6,7,8,9,10,11,12,13,14,15,16,17,18,19,20,21,22,23,24,25,26,27,28,29,30,31,32,33,34,35,36,37,38,39]",,Q8,echidna,0,unfamiliar,echidna.jpg,chen,y,,NA,12,,,y,14.22,14.22
p008,survey-likert,107448,"[0,1,2,3,4,5,6,7,8,9,10,11,12,13,14,15,16,17,18,19,20,21,22,23,24,25,26,27,28,29,30,31,32,33,34,35,36,37,38,39]",,Q9,jaguar,1,somewhat_familiar,jaguar.png,BOSS,n,,7.78,4,,,y,7.78,7.78
p008,survey-likert,107448,"[0,1,2,3,4,5,6,7,8,9,10,11,12,13,14,15,16,17,18,19,20,21,22,23,24,25,26,27,28,29,30,31,32,33,34,35,36,37,38,39]",,Q10,hippopotamus,4,somewhat_familiar,hippopotamus.png,BOSS,n,,7,4,,,y,7,7
p008,survey-likert,107448,"[0,1,2,3,4,5,6,7,8,9,10,11,12,13,14,15,16,17,18,19,20,21,22,23,24,25,26,27,28,29,30,31,32,33,34,35,36,37,38,39]",,Q11,butterfly,5,familiar,butterfly.png,BOSS,n,,3.67,2,,,fam,3.67,3.67
p008,survey-likert,107448,"[0,1,2,3,4,5,6,7,8,9,10,11,12,13,14,15,16,17,18,19,20,21,22,23,24,25,26,27,28,29,30,31,32,33,34,35,36,37,38,39]",,Q12,narwhal,5,unfamiliar,narwhal.png,BOSS,n,,12.14,12,,,y,12.14,12.14
p008,survey-likert,107448,"[0,1,2,3,4,5,6,7,8,9,10,11,12,13,14,15,16,17,18,19,20,21,22,23,24,25,26,27,28,29,30,31,32,33,34,35,36,37,38,39]",,Q13,tapir,1,unfamiliar,editing_needed,dimy,y,,11.23,13,,,y,11.23,11.23
p008,survey-likert,107448,"[0,1,2,3,4,5,6,7,8,9,10,11,12,13,14,15,16,17,18,19,20,21,22,23,24,25,26,27,28,29,30,31,32,33,34,35,36,37,38,39]",,Q14,koala,4,somewhat_familiar,koala.jpg,dimy,y,,6,10,,,y,6,6
p008,survey-likert,107448,"[0,1,2,3,4,5,6,7,8,9,10,11,12,13,14,15,16,17,18,19,20,21,22,23,24,25,26,27,28,29,30,31,32,33,34,35,36,37,38,39]",,Q15,elephant,5,familiar,elephant.png,BOSS,n,,4.8,2,,,y,4.8,4.8
p008,survey-likert,107448,"[0,1,2,3,4,5,6,7,8,9,10,11,12,13,14,15,16,17,18,19,20,21,22,23,24,25,26,27,28,29,30,31,32,33,34,35,36,37,38,39]",,Q16,cormorant,0,unfamiliar,cormorant.png,BOSS,n,,14.22,13,,,y,14.22,14.22
p008,survey-likert,107448,"[0,1,2,3,4,5,6,7,8,9,10,11,12,13,14,15,16,17,18,19,20,21,22,23,24,25,26,27,28,29,30,31,32,33,34,35,36,37,38,39]",,Q17,pangolin,0,unfamiliar,pangolin.jpg,dimy,n,,NA,13,,,y,14.22,14.22
p008,survey-likert,107448,"[0,1,2,3,4,5,6,7,8,9,10,11,12,13,14,15,16,17,18,19,20,21,22,23,24,25,26,27,28,29,30,31,32,33,34,35,36,37,38,39]",,Q18,chameleon,1,somewhat_unfamiliar,chameleon.png,BOSS,n,,10.18,12,,,y,10.18,10.18
p008,survey-likert,107448,"[0,1,2,3,4,5,6,7,8,9,10,11,12,13,14,15,16,17,18,19,20,21,22,23,24,25,26,27,28,29,30,31,32,33,34,35,36,37,38,39]",,Q19,wolf,4,familiar,wolf.png,BOSS,n,,4.5,2,,,fam,4.5,4.5
p008,survey-likert,107448,"[0,1,2,3,4,5,6,7,8,9,10,11,12,13,14,15,16,17,18,19,20,21,22,23,24,25,26,27,28,29,30,31,32,33,34,35,36,37,38,39]",,Q20,cow,5,familiar,cow.png,BOSS,n,,3.94,2,,,fam,3.94,3.94
p008,survey-likert,107448,"[0,1,2,3,4,5,6,7,8,9,10,11,12,13,14,15,16,17,18,19,20,21,22,23,24,25,26,27,28,29,30,31,32,33,34,35,36,37,38,39]",,Q21,frog,5,familiar,frog.png,CARE,n,,4.32,2,,,fam,4.32,4.32
p008,survey-likert,107448,"[0,1,2,3,4,5,6,7,8,9,10,11,12,13,14,15,16,17,18,19,20,21,22,23,24,25,26,27,28,29,30,31,32,33,34,35,36,37,38,39]",,Q22,duck,5,familiar,duck.png,MEM,n,,3.5,2,,,fam,3.5,3.5
p008,survey-likert,107448,"[0,1,2,3,4,5,6,7,8,9,10,11,12,13,14,15,16,17,18,19,20,21,22,23,24,25,26,27,28,29,30,31,32,33,34,35,36,37,38,39]",,Q23,zebra,5,familiar,zebra.png,BOSS,n,,4.79,2,,,y,4.79,4.79
p008,survey-likert,107448,"[0,1,2,3,4,5,6,7,8,9,10,11,12,13,14,15,16,17,18,19,20,21,22,23,24,25,26,27,28,29,30,31,32,33,34,35,36,37,38,39]",,Q24,wombat,0,unfamiliar,editing_needed,dimy,y,,11.31,13,,,y,11.31,11.31
p008,survey-likert,107448,"[0,1,2,3,4,5,6,7,8,9,10,11,12,13,14,15,16,17,18,19,20,21,22,23,24,25,26,27,28,29,30,31,32,33,34,35,36,37,38,39]",,Q25,sloth,1,somewhat_unfamiliar,sloth.jpg,chen,y,,8.37,12,,,y,8.37,8.37
p008,survey-likert,107448,"[0,1,2,3,4,5,6,7,8,9,10,11,12,13,14,15,16,17,18,19,20,21,22,23,24,25,26,27,28,29,30,31,32,33,34,35,36,37,38,39]",,Q26,squirrel,4,familiar,squirrel.png,BOSS,n,,4.44,2,N,not a great picture,fam,4.44,4.44
p008,survey-likert,107448,"[0,1,2,3,4,5,6,7,8,9,10,11,12,13,14,15,16,17,18,19,20,21,22,23,24,25,26,27,28,29,30,31,32,33,34,35,36,37,38,39]",,Q27,turtle,5,familiar,turtle.png,BOSS,n,,4.17,2,,,y,4.17,4.17
p008,survey-likert,107448,"[0,1,2,3,4,5,6,7,8,9,10,11,12,13,14,15,16,17,18,19,20,21,22,23,24,25,26,27,28,29,30,31,32,33,34,35,36,37,38,39]",,Q28,dolphin,5,somewhat_familiar,dolphin.png,BOSS,n,,6.05,10,,,y,6.05,6.05
p008,survey-likert,107448,"[0,1,2,3,4,5,6,7,8,9,10,11,12,13,14,15,16,17,18,19,20,21,22,23,24,25,26,27,28,29,30,31,32,33,34,35,36,37,38,39]",,Q29,lynx,0,unfamiliar,lynx.png,BOSS,n,,10.53,13,,,y,10.53,10.53
p008,survey-likert,107448,"[0,1,2,3,4,5,6,7,8,9,10,11,12,13,14,15,16,17,18,19,20,21,22,23,24,25,26,27,28,29,30,31,32,33,34,35,36,37,38,39]",,Q30,rabbit,5,familiar,rabbit.png,BOSS,n,,3.94,2,,,y,3.94,3.94
p008,survey-likert,107448,"[0,1,2,3,4,5,6,7,8,9,10,11,12,13,14,15,16,17,18,19,20,21,22,23,24,25,26,27,28,29,30,31,32,33,34,35,36,37,38,39]",,Q31,aardvark,0,somewhat_unfamiliar,aardvark.jpg,chen,y,,9.89,14,,,y,9.89,9.89
p008,survey-likert,107448,"[0,1,2,3,4,5,6,7,8,9,10,11,12,13,14,15,16,17,18,19,20,21,22,23,24,25,26,27,28,29,30,31,32,33,34,35,36,37,38,39]",,Q32,nyala,0,unfamiliar,nyala.png,BOSS,n,,NA,NA,,,y,14.22,14.22
p008,survey-likert,107448,"[0,1,2,3,4,5,6,7,8,9,10,11,12,13,14,15,16,17,18,19,20,21,22,23,24,25,26,27,28,29,30,31,32,33,34,35,36,37,38,39]",,Q33,flamingo,5,somewhat_familiar,flamingo.png,BOSS,n,,6.32,6,,,y,6.32,6.32
p008,survey-likert,107448,"[0,1,2,3,4,5,6,7,8,9,10,11,12,13,14,15,16,17,18,19,20,21,22,23,24,25,26,27,28,29,30,31,32,33,34,35,36,37,38,39]",,Q34,bear,5,familiar,bear.png,BOSS,n,,3.58,2,,,y,3.58,3.58
p008,survey-likert,107448,"[0,1,2,3,4,5,6,7,8,9,10,11,12,13,14,15,16,17,18,19,20,21,22,23,24,25,26,27,28,29,30,31,32,33,34,35,36,37,38,39]",,Q35,porcupine,3,somewhat_familiar,porcupine.png,BOSS,n,,6.89,6,,,y,6.89,6.89
p008,survey-likert,107448,"[0,1,2,3,4,5,6,7,8,9,10,11,12,13,14,15,16,17,18,19,20,21,22,23,24,25,26,27,28,29,30,31,32,33,34,35,36,37,38,39]",,Q36,armadillo,3,somewhat_unfamiliar,armadillo.jpg,dimy,y,,8.608885,8,,,y,8.608885,8.608885
p008,survey-likert,107448,"[0,1,2,3,4,5,6,7,8,9,10,11,12,13,14,15,16,17,18,19,20,21,22,23,24,25,26,27,28,29,30,31,32,33,34,35,36,37,38,39]",,Q37,lobster,4,somewhat_familiar,lobster.png,BOSS,n,,7.44,2,,,y,7.44,7.44
p008,survey-likert,107448,"[0,1,2,3,4,5,6,7,8,9,10,11,12,13,14,15,16,17,18,19,20,21,22,23,24,25,26,27,28,29,30,31,32,33,34,35,36,37,38,39]",,Q38,horse,5,familiar,horse.png,BOSS,n,,4.15,2,,,fam,4.15,4.15
p008,survey-likert,107448,"[0,1,2,3,4,5,6,7,8,9,10,11,12,13,14,15,16,17,18,19,20,21,22,23,24,25,26,27,28,29,30,31,32,33,34,35,36,37,38,39]",,Q39,cat,5,familiar,cat.png,CATegories,n,,3.68,2,,,fam,3.68,3.68
p009,survey-likert,215009,"[0,1,2,3,4,5,6,7,8,9,10,11,12,13,14,15,16,17,18,19,20,21,22,23,24,25,26,27,28,29,30,31,32,33,34,35,36,37,38,39]",,Q0,duck,5,familiar,duck.png,MEM,n,,3.5,2,,,fam,3.5,3.5
p009,survey-likert,215009,"[0,1,2,3,4,5,6,7,8,9,10,11,12,13,14,15,16,17,18,19,20,21,22,23,24,25,26,27,28,29,30,31,32,33,34,35,36,37,38,39]",,Q1,cat,5,familiar,cat.png,CATegories,n,,3.68,2,,,fam,3.68,3.68
p009,survey-likert,215009,"[0,1,2,3,4,5,6,7,8,9,10,11,12,13,14,15,16,17,18,19,20,21,22,23,24,25,26,27,28,29,30,31,32,33,34,35,36,37,38,39]",,Q2,rabbit,5,familiar,rabbit.png,BOSS,n,,3.94,2,,,y,3.94,3.94
p009,survey-likert,215009,"[0,1,2,3,4,5,6,7,8,9,10,11,12,13,14,15,16,17,18,19,20,21,22,23,24,25,26,27,28,29,30,31,32,33,34,35,36,37,38,39]",,Q3,zebra,5,familiar,zebra.png,BOSS,n,,4.79,2,,,y,4.79,4.79
p009,survey-likert,215009,"[0,1,2,3,4,5,6,7,8,9,10,11,12,13,14,15,16,17,18,19,20,21,22,23,24,25,26,27,28,29,30,31,32,33,34,35,36,37,38,39]",,Q4,armadillo,1,somewhat_unfamiliar,armadillo.jpg,dimy,y,,8.608885,8,,,y,8.608885,8.608885
p009,survey-likert,215009,"[0,1,2,3,4,5,6,7,8,9,10,11,12,13,14,15,16,17,18,19,20,21,22,23,24,25,26,27,28,29,30,31,32,33,34,35,36,37,38,39]",,Q5,wombat,0,unfamiliar,editing_needed,dimy,y,,11.31,13,,,y,11.31,11.31
p009,survey-likert,215009,"[0,1,2,3,4,5,6,7,8,9,10,11,12,13,14,15,16,17,18,19,20,21,22,23,24,25,26,27,28,29,30,31,32,33,34,35,36,37,38,39]",,Q6,turtle,5,familiar,turtle.png,BOSS,n,,4.17,2,,,y,4.17,4.17
p009,survey-likert,215009,"[0,1,2,3,4,5,6,7,8,9,10,11,12,13,14,15,16,17,18,19,20,21,22,23,24,25,26,27,28,29,30,31,32,33,34,35,36,37,38,39]",,Q7,alpaca,1,somewhat_unfamiliar,alpaca.jpg,dimy,y,,10.81,12,,,y,10.81,10.81
p009,survey-likert,215009,"[0,1,2,3,4,5,6,7,8,9,10,11,12,13,14,15,16,17,18,19,20,21,22,23,24,25,26,27,28,29,30,31,32,33,34,35,36,37,38,39]",,Q8,horse,5,familiar,horse.png,BOSS,n,,4.15,2,,,fam,4.15,4.15
p009,survey-likert,215009,"[0,1,2,3,4,5,6,7,8,9,10,11,12,13,14,15,16,17,18,19,20,21,22,23,24,25,26,27,28,29,30,31,32,33,34,35,36,37,38,39]",,Q9,jaguar,3,somewhat_familiar,jaguar.png,BOSS,n,,7.78,4,,,y,7.78,7.78
p009,survey-likert,215009,"[0,1,2,3,4,5,6,7,8,9,10,11,12,13,14,15,16,17,18,19,20,21,22,23,24,25,26,27,28,29,30,31,32,33,34,35,36,37,38,39]",,Q10,chameleon,4,somewhat_unfamiliar,chameleon.png,BOSS,n,,10.18,12,,,y,10.18,10.18
p009,survey-likert,215009,"[0,1,2,3,4,5,6,7,8,9,10,11,12,13,14,15,16,17,18,19,20,21,22,23,24,25,26,27,28,29,30,31,32,33,34,35,36,37,38,39]",,Q11,manatee,2,somewhat_unfamiliar,manatee.jpg,Moreno,y,,10.56,14,,,y,10.56,10.56
p009,survey-likert,215009,"[0,1,2,3,4,5,6,7,8,9,10,11,12,13,14,15,16,17,18,19,20,21,22,23,24,25,26,27,28,29,30,31,32,33,34,35,36,37,38,39]",,Q12,frog,5,familiar,frog.png,CARE,n,,4.32,2,,,fam,4.32,4.32
p009,survey-likert,215009,"[0,1,2,3,4,5,6,7,8,9,10,11,12,13,14,15,16,17,18,19,20,21,22,23,24,25,26,27,28,29,30,31,32,33,34,35,36,37,38,39]",,Q13,lynx,1,unfamiliar,lynx.png,BOSS,n,,10.53,13,,,y,10.53,10.53
p009,survey-likert,215009,"[0,1,2,3,4,5,6,7,8,9,10,11,12,13,14,15,16,17,18,19,20,21,22,23,24,25,26,27,28,29,30,31,32,33,34,35,36,37,38,39]",,Q14,wolf,4,familiar,wolf.png,BOSS,n,,4.5,2,,,fam,4.5,4.5
p009,survey-likert,215009,"[0,1,2,3,4,5,6,7,8,9,10,11,12,13,14,15,16,17,18,19,20,21,22,23,24,25,26,27,28,29,30,31,32,33,34,35,36,37,38,39]",,Q15,echidna,1,unfamiliar,echidna.jpg,chen,y,,NA,12,,,y,14.22,14.22
p009,survey-likert,215009,"[0,1,2,3,4,5,6,7,8,9,10,11,12,13,14,15,16,17,18,19,20,21,22,23,24,25,26,27,28,29,30,31,32,33,34,35,36,37,38,39]",,Q16,bear,5,familiar,bear.png,BOSS,n,,3.58,2,,,y,3.58,3.58
p009,survey-likert,215009,"[0,1,2,3,4,5,6,7,8,9,10,11,12,13,14,15,16,17,18,19,20,21,22,23,24,25,26,27,28,29,30,31,32,33,34,35,36,37,38,39]",,Q17,tapir,0,unfamiliar,editing_needed,dimy,y,,11.23,13,,,y,11.23,11.23
p009,survey-likert,215009,"[0,1,2,3,4,5,6,7,8,9,10,11,12,13,14,15,16,17,18,19,20,21,22,23,24,25,26,27,28,29,30,31,32,33,34,35,36,37,38,39]",,Q18,elephant,5,familiar,elephant.png,BOSS,n,,4.8,2,,,y,4.8,4.8
p009,survey-likert,215009,"[0,1,2,3,4,5,6,7,8,9,10,11,12,13,14,15,16,17,18,19,20,21,22,23,24,25,26,27,28,29,30,31,32,33,34,35,36,37,38,39]",,Q19,aardvark,1,somewhat_unfamiliar,aardvark.jpg,chen,y,,9.89,14,,,y,9.89,9.89
p009,survey-likert,215009,"[0,1,2,3,4,5,6,7,8,9,10,11,12,13,14,15,16,17,18,19,20,21,22,23,24,25,26,27,28,29,30,31,32,33,34,35,36,37,38,39]",,Q20,dolphin,5,somewhat_familiar,dolphin.png,BOSS,n,,6.05,10,,,y,6.05,6.05
p009,survey-likert,215009,"[0,1,2,3,4,5,6,7,8,9,10,11,12,13,14,15,16,17,18,19,20,21,22,23,24,25,26,27,28,29,30,31,32,33,34,35,36,37,38,39]",,Q21,tiger,5,familiar,tiger.png,BOSS,n,,4,2,,,y,4,4
p009,survey-likert,215009,"[0,1,2,3,4,5,6,7,8,9,10,11,12,13,14,15,16,17,18,19,20,21,22,23,24,25,26,27,28,29,30,31,32,33,34,35,36,37,38,39]",,Q22,flamingo,5,somewhat_familiar,flamingo.png,BOSS,n,,6.32,6,,,y,6.32,6.32
p009,survey-likert,215009,"[0,1,2,3,4,5,6,7,8,9,10,11,12,13,14,15,16,17,18,19,20,21,22,23,24,25,26,27,28,29,30,31,32,33,34,35,36,37,38,39]",,Q23,antelope,3,somewhat_unfamiliar,antelope.png,BOSS,n,,8.39,4,,,y,8.39,8.39
p009,survey-likert,215009,"[0,1,2,3,4,5,6,7,8,9,10,11,12,13,14,15,16,17,18,19,20,21,22,23,24,25,26,27,28,29,30,31,32,33,34,35,36,37,38,39]",,Q24,koala,3,somewhat_familiar,koala.jpg,dimy,y,,6,10,,,y,6,6
p009,survey-likert,215009,"[0,1,2,3,4,5,6,7,8,9,10,11,12,13,14,15,16,17,18,19,20,21,22,23,24,25,26,27,28,29,30,31,32,33,34,35,36,37,38,39]",,Q25,hippopotamus,4,somewhat_familiar,hippopotamus.png,BOSS,n,,7,4,,,y,7,7
p009,survey-likert,215009,"[0,1,2,3,4,5,6,7,8,9,10,11,12,13,14,15,16,17,18,19,20,21,22,23,24,25,26,27,28,29,30,31,32,33,34,35,36,37,38,39]",,Q26,pangolin,0,unfamiliar,pangolin.jpg,dimy,n,,NA,13,,,y,14.22,14.22
p009,survey-likert,215009,"[0,1,2,3,4,5,6,7,8,9,10,11,12,13,14,15,16,17,18,19,20,21,22,23,24,25,26,27,28,29,30,31,32,33,34,35,36,37,38,39]",,Q27,cow,5,familiar,cow.png,BOSS,n,,3.94,2,,,fam,3.94,3.94
p009,survey-likert,215009,"[0,1,2,3,4,5,6,7,8,9,10,11,12,13,14,15,16,17,18,19,20,21,22,23,24,25,26,27,28,29,30,31,32,33,34,35,36,37,38,39]",,Q28,lobster,4,somewhat_familiar,lobster.png,BOSS,n,,7.44,2,,,y,7.44,7.44
p009,survey-likert,215009,"[0,1,2,3,4,5,6,7,8,9,10,11,12,13,14,15,16,17,18,19,20,21,22,23,24,25,26,27,28,29,30,31,32,33,34,35,36,37,38,39]",,Q29,squirrel,5,familiar,squirrel.png,BOSS,n,,4.44,2,N,not a great picture,fam,4.44,4.44
p009,survey-likert,215009,"[0,1,2,3,4,5,6,7,8,9,10,11,12,13,14,15,16,17,18,19,20,21,22,23,24,25,26,27,28,29,30,31,32,33,34,35,36,37,38,39]",,Q30,sloth,3,somewhat_unfamiliar,sloth.jpg,chen,y,,8.37,12,,,y,8.37,8.37
p009,survey-likert,215009,"[0,1,2,3,4,5,6,7,8,9,10,11,12,13,14,15,16,17,18,19,20,21,22,23,24,25,26,27,28,29,30,31,32,33,34,35,36,37,38,39]",,Q31,dog,5,familiar,dog.png,CATegories,n,,2.8,2,,,y,2.8,2.8
p009,survey-likert,215009,"[0,1,2,3,4,5,6,7,8,9,10,11,12,13,14,15,16,17,18,19,20,21,22,23,24,25,26,27,28,29,30,31,32,33,34,35,36,37,38,39]",,Q32,nyala,0,unfamiliar,nyala.png,BOSS,n,,NA,NA,,,y,14.22,14.22
p009,survey-likert,215009,"[0,1,2,3,4,5,6,7,8,9,10,11,12,13,14,15,16,17,18,19,20,21,22,23,24,25,26,27,28,29,30,31,32,33,34,35,36,37,38,39]",,Q33,pig,5,familiar,pig.png,BOSS,n,,3.84,2,,,y,3.84,3.84
p009,survey-likert,215009,"[0,1,2,3,4,5,6,7,8,9,10,11,12,13,14,15,16,17,18,19,20,21,22,23,24,25,26,27,28,29,30,31,32,33,34,35,36,37,38,39]",,Q34,tarsier,0,unfamiliar,tarsier.jpeg,Wikimedia,y,,NA,NA,,,y,14.22,14.22
p009,survey-likert,215009,"[0,1,2,3,4,5,6,7,8,9,10,11,12,13,14,15,16,17,18,19,20,21,22,23,24,25,26,27,28,29,30,31,32,33,34,35,36,37,38,39]",,Q35,butterfly,5,familiar,butterfly.png,BOSS,n,,3.67,2,,,fam,3.67,3.67
p009,survey-likert,215009,"[0,1,2,3,4,5,6,7,8,9,10,11,12,13,14,15,16,17,18,19,20,21,22,23,24,25,26,27,28,29,30,31,32,33,34,35,36,37,38,39]",,Q36,porcupine,4,somewhat_familiar,porcupine.png,BOSS,n,,6.89,6,,,y,6.89,6.89
p009,survey-likert,215009,"[0,1,2,3,4,5,6,7,8,9,10,11,12,13,14,15,16,17,18,19,20,21,22,23,24,25,26,27,28,29,30,31,32,33,34,35,36,37,38,39]",,Q37,raccoon,4,somewhat_familiar,raccoon.png,BOSS,n,,6.79,2,,,y,6.79,6.79
p009,survey-likert,215009,"[0,1,2,3,4,5,6,7,8,9,10,11,12,13,14,15,16,17,18,19,20,21,22,23,24,25,26,27,28,29,30,31,32,33,34,35,36,37,38,39]",,Q38,cormorant,0,unfamiliar,cormorant.png,BOSS,n,,14.22,13,,,y,14.22,14.22
p009,survey-likert,215009,"[0,1,2,3,4,5,6,7,8,9,10,11,12,13,14,15,16,17,18,19,20,21,22,23,24,25,26,27,28,29,30,31,32,33,34,35,36,37,38,39]",,Q39,narwhal,5,unfamiliar,narwhal.png,BOSS,n,,12.14,12,,,y,12.14,12.14
p010,survey-likert,170768,"[0,1,2,3,4,5,6,7,8,9,10,11,12,13,14,15,16,17,18,19,20,21,22,23,24,25,26,27,28,29,30,31,32,33,34,35,36,37,38,39]",,Q0,armadillo,3,somewhat_unfamiliar,armadillo.jpg,dimy,y,,8.608885,8,,,y,8.608885,8.608885
p010,survey-likert,170768,"[0,1,2,3,4,5,6,7,8,9,10,11,12,13,14,15,16,17,18,19,20,21,22,23,24,25,26,27,28,29,30,31,32,33,34,35,36,37,38,39]",,Q1,butterfly,5,familiar,butterfly.png,BOSS,n,,3.67,2,,,fam,3.67,3.67
p010,survey-likert,170768,"[0,1,2,3,4,5,6,7,8,9,10,11,12,13,14,15,16,17,18,19,20,21,22,23,24,25,26,27,28,29,30,31,32,33,34,35,36,37,38,39]",,Q2,tapir,1,unfamiliar,editing_needed,dimy,y,,11.23,13,,,y,11.23,11.23
p010,survey-likert,170768,"[0,1,2,3,4,5,6,7,8,9,10,11,12,13,14,15,16,17,18,19,20,21,22,23,24,25,26,27,28,29,30,31,32,33,34,35,36,37,38,39]",,Q3,koala,4,somewhat_familiar,koala.jpg,dimy,y,,6,10,,,y,6,6
p010,survey-likert,170768,"[0,1,2,3,4,5,6,7,8,9,10,11,12,13,14,15,16,17,18,19,20,21,22,23,24,25,26,27,28,29,30,31,32,33,34,35,36,37,38,39]",,Q4,cow,5,familiar,cow.png,BOSS,n,,3.94,2,,,fam,3.94,3.94
p010,survey-likert,170768,"[0,1,2,3,4,5,6,7,8,9,10,11,12,13,14,15,16,17,18,19,20,21,22,23,24,25,26,27,28,29,30,31,32,33,34,35,36,37,38,39]",,Q5,narwhal,5,unfamiliar,narwhal.png,BOSS,n,,12.14,12,,,y,12.14,12.14
p010,survey-likert,170768,"[0,1,2,3,4,5,6,7,8,9,10,11,12,13,14,15,16,17,18,19,20,21,22,23,24,25,26,27,28,29,30,31,32,33,34,35,36,37,38,39]",,Q6,echidna,4,unfamiliar,echidna.jpg,chen,y,,NA,12,,,y,14.22,14.22
p010,survey-likert,170768,"[0,1,2,3,4,5,6,7,8,9,10,11,12,13,14,15,16,17,18,19,20,21,22,23,24,25,26,27,28,29,30,31,32,33,34,35,36,37,38,39]",,Q7,porcupine,5,somewhat_familiar,porcupine.png,BOSS,n,,6.89,6,,,y,6.89,6.89
p010,survey-likert,170768,"[0,1,2,3,4,5,6,7,8,9,10,11,12,13,14,15,16,17,18,19,20,21,22,23,24,25,26,27,28,29,30,31,32,33,34,35,36,37,38,39]",,Q8,rabbit,5,familiar,rabbit.png,BOSS,n,,3.94,2,,,y,3.94,3.94
p010,survey-likert,170768,"[0,1,2,3,4,5,6,7,8,9,10,11,12,13,14,15,16,17,18,19,20,21,22,23,24,25,26,27,28,29,30,31,32,33,34,35,36,37,38,39]",,Q9,horse,5,familiar,horse.png,BOSS,n,,4.15,2,,,fam,4.15,4.15
p010,survey-likert,170768,"[0,1,2,3,4,5,6,7,8,9,10,11,12,13,14,15,16,17,18,19,20,21,22,23,24,25,26,27,28,29,30,31,32,33,34,35,36,37,38,39]",,Q10,tarsier,1,unfamiliar,tarsier.jpeg,Wikimedia,y,,NA,NA,,,y,14.22,14.22
p010,survey-likert,170768,"[0,1,2,3,4,5,6,7,8,9,10,11,12,13,14,15,16,17,18,19,20,21,22,23,24,25,26,27,28,29,30,31,32,33,34,35,36,37,38,39]",,Q11,frog,5,familiar,frog.png,CARE,n,,4.32,2,,,fam,4.32,4.32
p010,survey-likert,170768,"[0,1,2,3,4,5,6,7,8,9,10,11,12,13,14,15,16,17,18,19,20,21,22,23,24,25,26,27,28,29,30,31,32,33,34,35,36,37,38,39]",,Q12,zebra,5,familiar,zebra.png,BOSS,n,,4.79,2,,,y,4.79,4.79
p010,survey-likert,170768,"[0,1,2,3,4,5,6,7,8,9,10,11,12,13,14,15,16,17,18,19,20,21,22,23,24,25,26,27,28,29,30,31,32,33,34,35,36,37,38,39]",,Q13,manatee,4,somewhat_unfamiliar,manatee.jpg,Moreno,y,,10.56,14,,,y,10.56,10.56
p010,survey-likert,170768,"[0,1,2,3,4,5,6,7,8,9,10,11,12,13,14,15,16,17,18,19,20,21,22,23,24,25,26,27,28,29,30,31,32,33,34,35,36,37,38,39]",,Q14,dolphin,5,somewhat_familiar,dolphin.png,BOSS,n,,6.05,10,,,y,6.05,6.05
p010,survey-likert,170768,"[0,1,2,3,4,5,6,7,8,9,10,11,12,13,14,15,16,17,18,19,20,21,22,23,24,25,26,27,28,29,30,31,32,33,34,35,36,37,38,39]",,Q15,nyala,1,unfamiliar,nyala.png,BOSS,n,,NA,NA,,,y,14.22,14.22
p010,survey-likert,170768,"[0,1,2,3,4,5,6,7,8,9,10,11,12,13,14,15,16,17,18,19,20,21,22,23,24,25,26,27,28,29,30,31,32,33,34,35,36,37,38,39]",,Q16,squirrel,5,familiar,squirrel.png,BOSS,n,,4.44,2,N,not a great picture,fam,4.44,4.44
p010,survey-likert,170768,"[0,1,2,3,4,5,6,7,8,9,10,11,12,13,14,15,16,17,18,19,20,21,22,23,24,25,26,27,28,29,30,31,32,33,34,35,36,37,38,39]",,Q17,lynx,NA,unfamiliar,lynx.png,BOSS,n,,10.53,13,,,y,10.53,10.53
p010,survey-likert,170768,"[0,1,2,3,4,5,6,7,8,9,10,11,12,13,14,15,16,17,18,19,20,21,22,23,24,25,26,27,28,29,30,31,32,33,34,35,36,37,38,39]",,Q18,cormorant,1,unfamiliar,cormorant.png,BOSS,n,,14.22,13,,,y,14.22,14.22
p010,survey-likert,170768,"[0,1,2,3,4,5,6,7,8,9,10,11,12,13,14,15,16,17,18,19,20,21,22,23,24,25,26,27,28,29,30,31,32,33,34,35,36,37,38,39]",,Q19,lobster,4,somewhat_familiar,lobster.png,BOSS,n,,7.44,2,,,y,7.44,7.44
p010,survey-likert,170768,"[0,1,2,3,4,5,6,7,8,9,10,11,12,13,14,15,16,17,18,19,20,21,22,23,24,25,26,27,28,29,30,31,32,33,34,35,36,37,38,39]",,Q20,pig,5,familiar,pig.png,BOSS,n,,3.84,2,,,y,3.84,3.84
p010,survey-likert,170768,"[0,1,2,3,4,5,6,7,8,9,10,11,12,13,14,15,16,17,18,19,20,21,22,23,24,25,26,27,28,29,30,31,32,33,34,35,36,37,38,39]",,Q21,flamingo,5,somewhat_familiar,flamingo.png,BOSS,n,,6.32,6,,,y,6.32,6.32
p010,survey-likert,170768,"[0,1,2,3,4,5,6,7,8,9,10,11,12,13,14,15,16,17,18,19,20,21,22,23,24,25,26,27,28,29,30,31,32,33,34,35,36,37,38,39]",,Q22,bear,5,familiar,bear.png,BOSS,n,,3.58,2,,,y,3.58,3.58
p010,survey-likert,170768,"[0,1,2,3,4,5,6,7,8,9,10,11,12,13,14,15,16,17,18,19,20,21,22,23,24,25,26,27,28,29,30,31,32,33,34,35,36,37,38,39]",,Q23,chameleon,4,somewhat_unfamiliar,chameleon.png,BOSS,n,,10.18,12,,,y,10.18,10.18
p010,survey-likert,170768,"[0,1,2,3,4,5,6,7,8,9,10,11,12,13,14,15,16,17,18,19,20,21,22,23,24,25,26,27,28,29,30,31,32,33,34,35,36,37,38,39]",,Q24,wombat,1,unfamiliar,editing_needed,dimy,y,,11.31,13,,,y,11.31,11.31
p010,survey-likert,170768,"[0,1,2,3,4,5,6,7,8,9,10,11,12,13,14,15,16,17,18,19,20,21,22,23,24,25,26,27,28,29,30,31,32,33,34,35,36,37,38,39]",,Q25,turtle,5,familiar,turtle.png,BOSS,n,,4.17,2,,,y,4.17,4.17
p010,survey-likert,170768,"[0,1,2,3,4,5,6,7,8,9,10,11,12,13,14,15,16,17,18,19,20,21,22,23,24,25,26,27,28,29,30,31,32,33,34,35,36,37,38,39]",,Q26,pangolin,0,unfamiliar,pangolin.jpg,dimy,n,,NA,13,,,y,14.22,14.22
p010,survey-likert,170768,"[0,1,2,3,4,5,6,7,8,9,10,11,12,13,14,15,16,17,18,19,20,21,22,23,24,25,26,27,28,29,30,31,32,33,34,35,36,37,38,39]",,Q27,sloth,3,somewhat_unfamiliar,sloth.jpg,chen,y,,8.37,12,,,y,8.37,8.37
p010,survey-likert,170768,"[0,1,2,3,4,5,6,7,8,9,10,11,12,13,14,15,16,17,18,19,20,21,22,23,24,25,26,27,28,29,30,31,32,33,34,35,36,37,38,39]",,Q28,cat,5,familiar,cat.png,CATegories,n,,3.68,2,,,fam,3.68,3.68
p010,survey-likert,170768,"[0,1,2,3,4,5,6,7,8,9,10,11,12,13,14,15,16,17,18,19,20,21,22,23,24,25,26,27,28,29,30,31,32,33,34,35,36,37,38,39]",,Q29,jaguar,3,somewhat_familiar,jaguar.png,BOSS,n,,7.78,4,,,y,7.78,7.78
p010,survey-likert,170768,"[0,1,2,3,4,5,6,7,8,9,10,11,12,13,14,15,16,17,18,19,20,21,22,23,24,25,26,27,28,29,30,31,32,33,34,35,36,37,38,39]",,Q30,alpaca,3,somewhat_unfamiliar,alpaca.jpg,dimy,y,,10.81,12,,,y,10.81,10.81
p010,survey-likert,170768,"[0,1,2,3,4,5,6,7,8,9,10,11,12,13,14,15,16,17,18,19,20,21,22,23,24,25,26,27,28,29,30,31,32,33,34,35,36,37,38,39]",,Q31,antelope,2,somewhat_unfamiliar,antelope.png,BOSS,n,,8.39,4,,,y,8.39,8.39
p010,survey-likert,170768,"[0,1,2,3,4,5,6,7,8,9,10,11,12,13,14,15,16,17,18,19,20,21,22,23,24,25,26,27,28,29,30,31,32,33,34,35,36,37,38,39]",,Q32,dog,5,familiar,dog.png,CATegories,n,,2.8,2,,,y,2.8,2.8
p010,survey-likert,170768,"[0,1,2,3,4,5,6,7,8,9,10,11,12,13,14,15,16,17,18,19,20,21,22,23,24,25,26,27,28,29,30,31,32,33,34,35,36,37,38,39]",,Q33,wolf,5,familiar,wolf.png,BOSS,n,,4.5,2,,,fam,4.5,4.5
p010,survey-likert,170768,"[0,1,2,3,4,5,6,7,8,9,10,11,12,13,14,15,16,17,18,19,20,21,22,23,24,25,26,27,28,29,30,31,32,33,34,35,36,37,38,39]",,Q34,elephant,5,familiar,elephant.png,BOSS,n,,4.8,2,,,y,4.8,4.8
p010,survey-likert,170768,"[0,1,2,3,4,5,6,7,8,9,10,11,12,13,14,15,16,17,18,19,20,21,22,23,24,25,26,27,28,29,30,31,32,33,34,35,36,37,38,39]",,Q35,raccoon,5,somewhat_familiar,raccoon.png,BOSS,n,,6.79,2,,,y,6.79,6.79
p010,survey-likert,170768,"[0,1,2,3,4,5,6,7,8,9,10,11,12,13,14,15,16,17,18,19,20,21,22,23,24,25,26,27,28,29,30,31,32,33,34,35,36,37,38,39]",,Q36,tiger,5,familiar,tiger.png,BOSS,n,,4,2,,,y,4,4
p010,survey-likert,170768,"[0,1,2,3,4,5,6,7,8,9,10,11,12,13,14,15,16,17,18,19,20,21,22,23,24,25,26,27,28,29,30,31,32,33,34,35,36,37,38,39]",,Q37,duck,5,familiar,duck.png,MEM,n,,3.5,2,,,fam,3.5,3.5
p010,survey-likert,170768,"[0,1,2,3,4,5,6,7,8,9,10,11,12,13,14,15,16,17,18,19,20,21,22,23,24,25,26,27,28,29,30,31,32,33,34,35,36,37,38,39]",,Q38,hippopotamus,5,somewhat_familiar,hippopotamus.png,BOSS,n,,7,4,,,y,7,7
p010,survey-likert,170768,"[0,1,2,3,4,5,6,7,8,9,10,11,12,13,14,15,16,17,18,19,20,21,22,23,24,25,26,27,28,29,30,31,32,33,34,35,36,37,38,39]",,Q39,aardvark,1,somewhat_unfamiliar,aardvark.jpg,chen,y,,9.89,14,,,y,9.89,9.89
p011,survey-likert,253700,"[0,1,2,3,4,5,6,7,8,9,10,11,12,13,14,15,16,17,18,19,20,21,22,23,24,25,26,27,28,29,30,31,32,33,34,35,36,37,38,39]",,Q0,tapir,3,unfamiliar,editing_needed,dimy,y,,11.23,13,,,y,11.23,11.23
p011,survey-likert,253700,"[0,1,2,3,4,5,6,7,8,9,10,11,12,13,14,15,16,17,18,19,20,21,22,23,24,25,26,27,28,29,30,31,32,33,34,35,36,37,38,39]",,Q1,lobster,2,somewhat_familiar,lobster.png,BOSS,n,,7.44,2,,,y,7.44,7.44
p011,survey-likert,253700,"[0,1,2,3,4,5,6,7,8,9,10,11,12,13,14,15,16,17,18,19,20,21,22,23,24,25,26,27,28,29,30,31,32,33,34,35,36,37,38,39]",,Q2,chameleon,2,somewhat_unfamiliar,chameleon.png,BOSS,n,,10.18,12,,,y,10.18,10.18
p011,survey-likert,253700,"[0,1,2,3,4,5,6,7,8,9,10,11,12,13,14,15,16,17,18,19,20,21,22,23,24,25,26,27,28,29,30,31,32,33,34,35,36,37,38,39]",,Q3,cormorant,0,unfamiliar,cormorant.png,BOSS,n,,14.22,13,,,y,14.22,14.22
p011,survey-likert,253700,"[0,1,2,3,4,5,6,7,8,9,10,11,12,13,14,15,16,17,18,19,20,21,22,23,24,25,26,27,28,29,30,31,32,33,34,35,36,37,38,39]",,Q4,turtle,5,familiar,turtle.png,BOSS,n,,4.17,2,,,y,4.17,4.17
p011,survey-likert,253700,"[0,1,2,3,4,5,6,7,8,9,10,11,12,13,14,15,16,17,18,19,20,21,22,23,24,25,26,27,28,29,30,31,32,33,34,35,36,37,38,39]",,Q5,echidna,0,unfamiliar,echidna.jpg,chen,y,,NA,12,,,y,14.22,14.22
p011,survey-likert,253700,"[0,1,2,3,4,5,6,7,8,9,10,11,12,13,14,15,16,17,18,19,20,21,22,23,24,25,26,27,28,29,30,31,32,33,34,35,36,37,38,39]",,Q6,tarsier,0,unfamiliar,tarsier.jpeg,Wikimedia,y,,NA,NA,,,y,14.22,14.22
p011,survey-likert,253700,"[0,1,2,3,4,5,6,7,8,9,10,11,12,13,14,15,16,17,18,19,20,21,22,23,24,25,26,27,28,29,30,31,32,33,34,35,36,37,38,39]",,Q7,zebra,5,familiar,zebra.png,BOSS,n,,4.79,2,,,y,4.79,4.79
p011,survey-likert,253700,"[0,1,2,3,4,5,6,7,8,9,10,11,12,13,14,15,16,17,18,19,20,21,22,23,24,25,26,27,28,29,30,31,32,33,34,35,36,37,38,39]",,Q8,dog,5,familiar,dog.png,CATegories,n,,2.8,2,,,y,2.8,2.8
p011,survey-likert,253700,"[0,1,2,3,4,5,6,7,8,9,10,11,12,13,14,15,16,17,18,19,20,21,22,23,24,25,26,27,28,29,30,31,32,33,34,35,36,37,38,39]",,Q9,antelope,2,somewhat_unfamiliar,antelope.png,BOSS,n,,8.39,4,,,y,8.39,8.39
p011,survey-likert,253700,"[0,1,2,3,4,5,6,7,8,9,10,11,12,13,14,15,16,17,18,19,20,21,22,23,24,25,26,27,28,29,30,31,32,33,34,35,36,37,38,39]",,Q10,flamingo,4,somewhat_familiar,flamingo.png,BOSS,n,,6.32,6,,,y,6.32,6.32
p011,survey-likert,253700,"[0,1,2,3,4,5,6,7,8,9,10,11,12,13,14,15,16,17,18,19,20,21,22,23,24,25,26,27,28,29,30,31,32,33,34,35,36,37,38,39]",,Q11,wombat,1,unfamiliar,editing_needed,dimy,y,,11.31,13,,,y,11.31,11.31
p011,survey-likert,253700,"[0,1,2,3,4,5,6,7,8,9,10,11,12,13,14,15,16,17,18,19,20,21,22,23,24,25,26,27,28,29,30,31,32,33,34,35,36,37,38,39]",,Q12,alpaca,2,somewhat_unfamiliar,alpaca.jpg,dimy,y,,10.81,12,,,y,10.81,10.81
p011,survey-likert,253700,"[0,1,2,3,4,5,6,7,8,9,10,11,12,13,14,15,16,17,18,19,20,21,22,23,24,25,26,27,28,29,30,31,32,33,34,35,36,37,38,39]",,Q13,frog,5,familiar,frog.png,CARE,n,,4.32,2,,,fam,4.32,4.32
p011,survey-likert,253700,"[0,1,2,3,4,5,6,7,8,9,10,11,12,13,14,15,16,17,18,19,20,21,22,23,24,25,26,27,28,29,30,31,32,33,34,35,36,37,38,39]",,Q14,pig,5,familiar,pig.png,BOSS,n,,3.84,2,,,y,3.84,3.84
p011,survey-likert,253700,"[0,1,2,3,4,5,6,7,8,9,10,11,12,13,14,15,16,17,18,19,20,21,22,23,24,25,26,27,28,29,30,31,32,33,34,35,36,37,38,39]",,Q15,hippopotamus,4,somewhat_familiar,hippopotamus.png,BOSS,n,,7,4,,,y,7,7
p011,survey-likert,253700,"[0,1,2,3,4,5,6,7,8,9,10,11,12,13,14,15,16,17,18,19,20,21,22,23,24,25,26,27,28,29,30,31,32,33,34,35,36,37,38,39]",,Q16,cow,5,familiar,cow.png,BOSS,n,,3.94,2,,,fam,3.94,3.94
p011,survey-likert,253700,"[0,1,2,3,4,5,6,7,8,9,10,11,12,13,14,15,16,17,18,19,20,21,22,23,24,25,26,27,28,29,30,31,32,33,34,35,36,37,38,39]",,Q17,armadillo,1,somewhat_unfamiliar,armadillo.jpg,dimy,y,,8.608885,8,,,y,8.608885,8.608885
p011,survey-likert,253700,"[0,1,2,3,4,5,6,7,8,9,10,11,12,13,14,15,16,17,18,19,20,21,22,23,24,25,26,27,28,29,30,31,32,33,34,35,36,37,38,39]",,Q18,porcupine,2,somewhat_familiar,porcupine.png,BOSS,n,,6.89,6,,,y,6.89,6.89
p011,survey-likert,253700,"[0,1,2,3,4,5,6,7,8,9,10,11,12,13,14,15,16,17,18,19,20,21,22,23,24,25,26,27,28,29,30,31,32,33,34,35,36,37,38,39]",,Q19,nyala,0,unfamiliar,nyala.png,BOSS,n,,NA,NA,,,y,14.22,14.22
p011,survey-likert,253700,"[0,1,2,3,4,5,6,7,8,9,10,11,12,13,14,15,16,17,18,19,20,21,22,23,24,25,26,27,28,29,30,31,32,33,34,35,36,37,38,39]",,Q20,butterfly,5,familiar,butterfly.png,BOSS,n,,3.67,2,,,fam,3.67,3.67
p011,survey-likert,253700,"[0,1,2,3,4,5,6,7,8,9,10,11,12,13,14,15,16,17,18,19,20,21,22,23,24,25,26,27,28,29,30,31,32,33,34,35,36,37,38,39]",,Q21,squirrel,5,familiar,squirrel.png,BOSS,n,,4.44,2,N,not a great picture,fam,4.44,4.44
p011,survey-likert,253700,"[0,1,2,3,4,5,6,7,8,9,10,11,12,13,14,15,16,17,18,19,20,21,22,23,24,25,26,27,28,29,30,31,32,33,34,35,36,37,38,39]",,Q22,bear,5,familiar,bear.png,BOSS,n,,3.58,2,,,y,3.58,3.58
p011,survey-likert,253700,"[0,1,2,3,4,5,6,7,8,9,10,11,12,13,14,15,16,17,18,19,20,21,22,23,24,25,26,27,28,29,30,31,32,33,34,35,36,37,38,39]",,Q23,manatee,1,somewhat_unfamiliar,manatee.jpg,Moreno,y,,10.56,14,,,y,10.56,10.56
p011,survey-likert,253700,"[0,1,2,3,4,5,6,7,8,9,10,11,12,13,14,15,16,17,18,19,20,21,22,23,24,25,26,27,28,29,30,31,32,33,34,35,36,37,38,39]",,Q24,pangolin,0,unfamiliar,pangolin.jpg,dimy,n,,NA,13,,,y,14.22,14.22
p011,survey-likert,253700,"[0,1,2,3,4,5,6,7,8,9,10,11,12,13,14,15,16,17,18,19,20,21,22,23,24,25,26,27,28,29,30,31,32,33,34,35,36,37,38,39]",,Q25,rabbit,5,familiar,rabbit.png,BOSS,n,,3.94,2,,,y,3.94,3.94
p011,survey-likert,253700,"[0,1,2,3,4,5,6,7,8,9,10,11,12,13,14,15,16,17,18,19,20,21,22,23,24,25,26,27,28,29,30,31,32,33,34,35,36,37,38,39]",,Q26,horse,5,familiar,horse.png,BOSS,n,,4.15,2,,,fam,4.15,4.15
p011,survey-likert,253700,"[0,1,2,3,4,5,6,7,8,9,10,11,12,13,14,15,16,17,18,19,20,21,22,23,24,25,26,27,28,29,30,31,32,33,34,35,36,37,38,39]",,Q27,wolf,4,familiar,wolf.png,BOSS,n,,4.5,2,,,fam,4.5,4.5
p011,survey-likert,253700,"[0,1,2,3,4,5,6,7,8,9,10,11,12,13,14,15,16,17,18,19,20,21,22,23,24,25,26,27,28,29,30,31,32,33,34,35,36,37,38,39]",,Q28,dolphin,4,somewhat_familiar,dolphin.png,BOSS,n,,6.05,10,,,y,6.05,6.05
p011,survey-likert,253700,"[0,1,2,3,4,5,6,7,8,9,10,11,12,13,14,15,16,17,18,19,20,21,22,23,24,25,26,27,28,29,30,31,32,33,34,35,36,37,38,39]",,Q29,elephant,5,familiar,elephant.png,BOSS,n,,4.8,2,,,y,4.8,4.8
p011,survey-likert,253700,"[0,1,2,3,4,5,6,7,8,9,10,11,12,13,14,15,16,17,18,19,20,21,22,23,24,25,26,27,28,29,30,31,32,33,34,35,36,37,38,39]",,Q30,tiger,5,familiar,tiger.png,BOSS,n,,4,2,,,y,4,4
p011,survey-likert,253700,"[0,1,2,3,4,5,6,7,8,9,10,11,12,13,14,15,16,17,18,19,20,21,22,23,24,25,26,27,28,29,30,31,32,33,34,35,36,37,38,39]",,Q31,cat,5,familiar,cat.png,CATegories,n,,3.68,2,,,fam,3.68,3.68
p011,survey-likert,253700,"[0,1,2,3,4,5,6,7,8,9,10,11,12,13,14,15,16,17,18,19,20,21,22,23,24,25,26,27,28,29,30,31,32,33,34,35,36,37,38,39]",,Q32,sloth,4,somewhat_unfamiliar,sloth.jpg,chen,y,,8.37,12,,,y,8.37,8.37
p011,survey-likert,253700,"[0,1,2,3,4,5,6,7,8,9,10,11,12,13,14,15,16,17,18,19,20,21,22,23,24,25,26,27,28,29,30,31,32,33,34,35,36,37,38,39]",,Q33,koala,3,somewhat_familiar,koala.jpg,dimy,y,,6,10,,,y,6,6
p011,survey-likert,253700,"[0,1,2,3,4,5,6,7,8,9,10,11,12,13,14,15,16,17,18,19,20,21,22,23,24,25,26,27,28,29,30,31,32,33,34,35,36,37,38,39]",,Q34,aardvark,0,somewhat_unfamiliar,aardvark.jpg,chen,y,,9.89,14,,,y,9.89,9.89
p011,survey-likert,253700,"[0,1,2,3,4,5,6,7,8,9,10,11,12,13,14,15,16,17,18,19,20,21,22,23,24,25,26,27,28,29,30,31,32,33,34,35,36,37,38,39]",,Q35,lynx,0,unfamiliar,lynx.png,BOSS,n,,10.53,13,,,y,10.53,10.53
p011,survey-likert,253700,"[0,1,2,3,4,5,6,7,8,9,10,11,12,13,14,15,16,17,18,19,20,21,22,23,24,25,26,27,28,29,30,31,32,33,34,35,36,37,38,39]",,Q36,raccoon,4,somewhat_familiar,raccoon.png,BOSS,n,,6.79,2,,,y,6.79,6.79
p011,survey-likert,253700,"[0,1,2,3,4,5,6,7,8,9,10,11,12,13,14,15,16,17,18,19,20,21,22,23,24,25,26,27,28,29,30,31,32,33,34,35,36,37,38,39]",,Q37,narwhal,0,unfamiliar,narwhal.png,BOSS,n,,12.14,12,,,y,12.14,12.14
p011,survey-likert,253700,"[0,1,2,3,4,5,6,7,8,9,10,11,12,13,14,15,16,17,18,19,20,21,22,23,24,25,26,27,28,29,30,31,32,33,34,35,36,37,38,39]",,Q38,duck,5,familiar,duck.png,MEM,n,,3.5,2,,,fam,3.5,3.5
p011,survey-likert,253700,"[0,1,2,3,4,5,6,7,8,9,10,11,12,13,14,15,16,17,18,19,20,21,22,23,24,25,26,27,28,29,30,31,32,33,34,35,36,37,38,39]",,Q39,jaguar,4,somewhat_familiar,jaguar.png,BOSS,n,,7.78,4,,,y,7.78,7.78
p012,survey-likert,140471,"[0,1,2,3,4,5,6,7,8,9,10,11,12,13,14,15,16,17,18,19,20,21,22,23,24,25,26,27,28,29,30,31,32,33,34,35,36,37,38,39]",,Q0,pangolin,3,unfamiliar,pangolin.jpg,dimy,n,,NA,13,,,y,14.22,14.22
p012,survey-likert,140471,"[0,1,2,3,4,5,6,7,8,9,10,11,12,13,14,15,16,17,18,19,20,21,22,23,24,25,26,27,28,29,30,31,32,33,34,35,36,37,38,39]",,Q1,koala,5,somewhat_familiar,koala.jpg,dimy,y,,6,10,,,y,6,6
p012,survey-likert,140471,"[0,1,2,3,4,5,6,7,8,9,10,11,12,13,14,15,16,17,18,19,20,21,22,23,24,25,26,27,28,29,30,31,32,33,34,35,36,37,38,39]",,Q2,squirrel,5,familiar,squirrel.png,BOSS,n,,4.44,2,N,not a great picture,fam,4.44,4.44
p012,survey-likert,140471,"[0,1,2,3,4,5,6,7,8,9,10,11,12,13,14,15,16,17,18,19,20,21,22,23,24,25,26,27,28,29,30,31,32,33,34,35,36,37,38,39]",,Q3,aardvark,4,somewhat_unfamiliar,aardvark.jpg,chen,y,,9.89,14,,,y,9.89,9.89
p012,survey-likert,140471,"[0,1,2,3,4,5,6,7,8,9,10,11,12,13,14,15,16,17,18,19,20,21,22,23,24,25,26,27,28,29,30,31,32,33,34,35,36,37,38,39]",,Q4,echidna,4,unfamiliar,echidna.jpg,chen,y,,NA,12,,,y,14.22,14.22
p012,survey-likert,140471,"[0,1,2,3,4,5,6,7,8,9,10,11,12,13,14,15,16,17,18,19,20,21,22,23,24,25,26,27,28,29,30,31,32,33,34,35,36,37,38,39]",,Q5,elephant,5,familiar,elephant.png,BOSS,n,,4.8,2,,,y,4.8,4.8
p012,survey-likert,140471,"[0,1,2,3,4,5,6,7,8,9,10,11,12,13,14,15,16,17,18,19,20,21,22,23,24,25,26,27,28,29,30,31,32,33,34,35,36,37,38,39]",,Q6,narwhal,5,unfamiliar,narwhal.png,BOSS,n,,12.14,12,,,y,12.14,12.14
p012,survey-likert,140471,"[0,1,2,3,4,5,6,7,8,9,10,11,12,13,14,15,16,17,18,19,20,21,22,23,24,25,26,27,28,29,30,31,32,33,34,35,36,37,38,39]",,Q7,horse,5,familiar,horse.png,BOSS,n,,4.15,2,,,fam,4.15,4.15
p012,survey-likert,140471,"[0,1,2,3,4,5,6,7,8,9,10,11,12,13,14,15,16,17,18,19,20,21,22,23,24,25,26,27,28,29,30,31,32,33,34,35,36,37,38,39]",,Q8,jaguar,5,somewhat_familiar,jaguar.png,BOSS,n,,7.78,4,,,y,7.78,7.78
p012,survey-likert,140471,"[0,1,2,3,4,5,6,7,8,9,10,11,12,13,14,15,16,17,18,19,20,21,22,23,24,25,26,27,28,29,30,31,32,33,34,35,36,37,38,39]",,Q9,tarsier,2,unfamiliar,tarsier.jpeg,Wikimedia,y,,NA,NA,,,y,14.22,14.22
p012,survey-likert,140471,"[0,1,2,3,4,5,6,7,8,9,10,11,12,13,14,15,16,17,18,19,20,21,22,23,24,25,26,27,28,29,30,31,32,33,34,35,36,37,38,39]",,Q10,cow,5,familiar,cow.png,BOSS,n,,3.94,2,,,fam,3.94,3.94
p012,survey-likert,140471,"[0,1,2,3,4,5,6,7,8,9,10,11,12,13,14,15,16,17,18,19,20,21,22,23,24,25,26,27,28,29,30,31,32,33,34,35,36,37,38,39]",,Q11,raccoon,5,somewhat_familiar,raccoon.png,BOSS,n,,6.79,2,,,y,6.79,6.79
p012,survey-likert,140471,"[0,1,2,3,4,5,6,7,8,9,10,11,12,13,14,15,16,17,18,19,20,21,22,23,24,25,26,27,28,29,30,31,32,33,34,35,36,37,38,39]",,Q12,antelope,3,somewhat_unfamiliar,antelope.png,BOSS,n,,8.39,4,,,y,8.39,8.39
p012,survey-likert,140471,"[0,1,2,3,4,5,6,7,8,9,10,11,12,13,14,15,16,17,18,19,20,21,22,23,24,25,26,27,28,29,30,31,32,33,34,35,36,37,38,39]",,Q13,lynx,3,unfamiliar,lynx.png,BOSS,n,,10.53,13,,,y,10.53,10.53
p012,survey-likert,140471,"[0,1,2,3,4,5,6,7,8,9,10,11,12,13,14,15,16,17,18,19,20,21,22,23,24,25,26,27,28,29,30,31,32,33,34,35,36,37,38,39]",,Q14,flamingo,5,somewhat_familiar,flamingo.png,BOSS,n,,6.32,6,,,y,6.32,6.32
p012,survey-likert,140471,"[0,1,2,3,4,5,6,7,8,9,10,11,12,13,14,15,16,17,18,19,20,21,22,23,24,25,26,27,28,29,30,31,32,33,34,35,36,37,38,39]",,Q15,armadillo,4,somewhat_unfamiliar,armadillo.jpg,dimy,y,,8.608885,8,,,y,8.608885,8.608885
p012,survey-likert,140471,"[0,1,2,3,4,5,6,7,8,9,10,11,12,13,14,15,16,17,18,19,20,21,22,23,24,25,26,27,28,29,30,31,32,33,34,35,36,37,38,39]",,Q16,zebra,5,familiar,zebra.png,BOSS,n,,4.79,2,,,y,4.79,4.79
p012,survey-likert,140471,"[0,1,2,3,4,5,6,7,8,9,10,11,12,13,14,15,16,17,18,19,20,21,22,23,24,25,26,27,28,29,30,31,32,33,34,35,36,37,38,39]",,Q17,manatee,5,somewhat_unfamiliar,manatee.jpg,Moreno,y,,10.56,14,,,y,10.56,10.56
p012,survey-likert,140471,"[0,1,2,3,4,5,6,7,8,9,10,11,12,13,14,15,16,17,18,19,20,21,22,23,24,25,26,27,28,29,30,31,32,33,34,35,36,37,38,39]",,Q18,sloth,4,somewhat_unfamiliar,sloth.jpg,chen,y,,8.37,12,,,y,8.37,8.37
p012,survey-likert,140471,"[0,1,2,3,4,5,6,7,8,9,10,11,12,13,14,15,16,17,18,19,20,21,22,23,24,25,26,27,28,29,30,31,32,33,34,35,36,37,38,39]",,Q19,dog,5,familiar,dog.png,CATegories,n,,2.8,2,,,y,2.8,2.8
p012,survey-likert,140471,"[0,1,2,3,4,5,6,7,8,9,10,11,12,13,14,15,16,17,18,19,20,21,22,23,24,25,26,27,28,29,30,31,32,33,34,35,36,37,38,39]",,Q20,tapir,2,unfamiliar,editing_needed,dimy,y,,11.23,13,,,y,11.23,11.23
p012,survey-likert,140471,"[0,1,2,3,4,5,6,7,8,9,10,11,12,13,14,15,16,17,18,19,20,21,22,23,24,25,26,27,28,29,30,31,32,33,34,35,36,37,38,39]",,Q21,rabbit,5,familiar,rabbit.png,BOSS,n,,3.94,2,,,y,3.94,3.94
p012,survey-likert,140471,"[0,1,2,3,4,5,6,7,8,9,10,11,12,13,14,15,16,17,18,19,20,21,22,23,24,25,26,27,28,29,30,31,32,33,34,35,36,37,38,39]",,Q22,bear,5,familiar,bear.png,BOSS,n,,3.58,2,,,y,3.58,3.58
p012,survey-likert,140471,"[0,1,2,3,4,5,6,7,8,9,10,11,12,13,14,15,16,17,18,19,20,21,22,23,24,25,26,27,28,29,30,31,32,33,34,35,36,37,38,39]",,Q23,nyala,0,unfamiliar,nyala.png,BOSS,n,,NA,NA,,,y,14.22,14.22
p012,survey-likert,140471,"[0,1,2,3,4,5,6,7,8,9,10,11,12,13,14,15,16,17,18,19,20,21,22,23,24,25,26,27,28,29,30,31,32,33,34,35,36,37,38,39]",,Q24,frog,5,familiar,frog.png,CARE,n,,4.32,2,,,fam,4.32,4.32
p012,survey-likert,140471,"[0,1,2,3,4,5,6,7,8,9,10,11,12,13,14,15,16,17,18,19,20,21,22,23,24,25,26,27,28,29,30,31,32,33,34,35,36,37,38,39]",,Q25,porcupine,5,somewhat_familiar,porcupine.png,BOSS,n,,6.89,6,,,y,6.89,6.89
p012,survey-likert,140471,"[0,1,2,3,4,5,6,7,8,9,10,11,12,13,14,15,16,17,18,19,20,21,22,23,24,25,26,27,28,29,30,31,32,33,34,35,36,37,38,39]",,Q26,pig,5,familiar,pig.png,BOSS,n,,3.84,2,,,y,3.84,3.84
p012,survey-likert,140471,"[0,1,2,3,4,5,6,7,8,9,10,11,12,13,14,15,16,17,18,19,20,21,22,23,24,25,26,27,28,29,30,31,32,33,34,35,36,37,38,39]",,Q27,butterfly,5,familiar,butterfly.png,BOSS,n,,3.67,2,,,fam,3.67,3.67
p012,survey-likert,140471,"[0,1,2,3,4,5,6,7,8,9,10,11,12,13,14,15,16,17,18,19,20,21,22,23,24,25,26,27,28,29,30,31,32,33,34,35,36,37,38,39]",,Q28,tiger,5,familiar,tiger.png,BOSS,n,,4,2,,,y,4,4
p012,survey-likert,140471,"[0,1,2,3,4,5,6,7,8,9,10,11,12,13,14,15,16,17,18,19,20,21,22,23,24,25,26,27,28,29,30,31,32,33,34,35,36,37,38,39]",,Q29,cormorant,0,unfamiliar,cormorant.png,BOSS,n,,14.22,13,,,y,14.22,14.22
p012,survey-likert,140471,"[0,1,2,3,4,5,6,7,8,9,10,11,12,13,14,15,16,17,18,19,20,21,22,23,24,25,26,27,28,29,30,31,32,33,34,35,36,37,38,39]",,Q30,wolf,5,familiar,wolf.png,BOSS,n,,4.5,2,,,fam,4.5,4.5
p012,survey-likert,140471,"[0,1,2,3,4,5,6,7,8,9,10,11,12,13,14,15,16,17,18,19,20,21,22,23,24,25,26,27,28,29,30,31,32,33,34,35,36,37,38,39]",,Q31,duck,5,familiar,duck.png,MEM,n,,3.5,2,,,fam,3.5,3.5
p012,survey-likert,140471,"[0,1,2,3,4,5,6,7,8,9,10,11,12,13,14,15,16,17,18,19,20,21,22,23,24,25,26,27,28,29,30,31,32,33,34,35,36,37,38,39]",,Q32,chameleon,5,somewhat_unfamiliar,chameleon.png,BOSS,n,,10.18,12,,,y,10.18,10.18
p012,survey-likert,140471,"[0,1,2,3,4,5,6,7,8,9,10,11,12,13,14,15,16,17,18,19,20,21,22,23,24,25,26,27,28,29,30,31,32,33,34,35,36,37,38,39]",,Q33,cat,5,familiar,cat.png,CATegories,n,,3.68,2,,,fam,3.68,3.68
p012,survey-likert,140471,"[0,1,2,3,4,5,6,7,8,9,10,11,12,13,14,15,16,17,18,19,20,21,22,23,24,25,26,27,28,29,30,31,32,33,34,35,36,37,38,39]",,Q34,wombat,2,unfamiliar,editing_needed,dimy,y,,11.31,13,,,y,11.31,11.31
p012,survey-likert,140471,"[0,1,2,3,4,5,6,7,8,9,10,11,12,13,14,15,16,17,18,19,20,21,22,23,24,25,26,27,28,29,30,31,32,33,34,35,36,37,38,39]",,Q35,hippopotamus,5,somewhat_familiar,hippopotamus.png,BOSS,n,,7,4,,,y,7,7
p012,survey-likert,140471,"[0,1,2,3,4,5,6,7,8,9,10,11,12,13,14,15,16,17,18,19,20,21,22,23,24,25,26,27,28,29,30,31,32,33,34,35,36,37,38,39]",,Q36,dolphin,5,somewhat_familiar,dolphin.png,BOSS,n,,6.05,10,,,y,6.05,6.05
p012,survey-likert,140471,"[0,1,2,3,4,5,6,7,8,9,10,11,12,13,14,15,16,17,18,19,20,21,22,23,24,25,26,27,28,29,30,31,32,33,34,35,36,37,38,39]",,Q37,alpaca,3,somewhat_unfamiliar,alpaca.jpg,dimy,y,,10.81,12,,,y,10.81,10.81
p012,survey-likert,140471,"[0,1,2,3,4,5,6,7,8,9,10,11,12,13,14,15,16,17,18,19,20,21,22,23,24,25,26,27,28,29,30,31,32,33,34,35,36,37,38,39]",,Q38,turtle,5,familiar,turtle.png,BOSS,n,,4.17,2,,,y,4.17,4.17
p012,survey-likert,140471,"[0,1,2,3,4,5,6,7,8,9,10,11,12,13,14,15,16,17,18,19,20,21,22,23,24,25,26,27,28,29,30,31,32,33,34,35,36,37,38,39]",,Q39,lobster,5,somewhat_familiar,lobster.png,BOSS,n,,7.44,2,,,y,7.44,7.44
p013,survey-likert,155407,"[0,1,2,3,4,5,6,7,8,9,10,11,12,13,14,15,16,17,18,19,20,21,22,23,24,25,26,27,28,29,30,31,32,33,34,35,36,37,38,39]",,Q0,alpaca,1,somewhat_unfamiliar,alpaca.jpg,dimy,y,,10.81,12,,,y,10.81,10.81
p013,survey-likert,155407,"[0,1,2,3,4,5,6,7,8,9,10,11,12,13,14,15,16,17,18,19,20,21,22,23,24,25,26,27,28,29,30,31,32,33,34,35,36,37,38,39]",,Q1,porcupine,5,somewhat_familiar,porcupine.png,BOSS,n,,6.89,6,,,y,6.89,6.89
p013,survey-likert,155407,"[0,1,2,3,4,5,6,7,8,9,10,11,12,13,14,15,16,17,18,19,20,21,22,23,24,25,26,27,28,29,30,31,32,33,34,35,36,37,38,39]",,Q2,koala,3,somewhat_familiar,koala.jpg,dimy,y,,6,10,,,y,6,6
p013,survey-likert,155407,"[0,1,2,3,4,5,6,7,8,9,10,11,12,13,14,15,16,17,18,19,20,21,22,23,24,25,26,27,28,29,30,31,32,33,34,35,36,37,38,39]",,Q3,cormorant,0,unfamiliar,cormorant.png,BOSS,n,,14.22,13,,,y,14.22,14.22
p013,survey-likert,155407,"[0,1,2,3,4,5,6,7,8,9,10,11,12,13,14,15,16,17,18,19,20,21,22,23,24,25,26,27,28,29,30,31,32,33,34,35,36,37,38,39]",,Q4,wombat,1,unfamiliar,editing_needed,dimy,y,,11.31,13,,,y,11.31,11.31
p013,survey-likert,155407,"[0,1,2,3,4,5,6,7,8,9,10,11,12,13,14,15,16,17,18,19,20,21,22,23,24,25,26,27,28,29,30,31,32,33,34,35,36,37,38,39]",,Q5,bear,5,familiar,bear.png,BOSS,n,,3.58,2,,,y,3.58,3.58
p013,survey-likert,155407,"[0,1,2,3,4,5,6,7,8,9,10,11,12,13,14,15,16,17,18,19,20,21,22,23,24,25,26,27,28,29,30,31,32,33,34,35,36,37,38,39]",,Q6,zebra,5,familiar,zebra.png,BOSS,n,,4.79,2,,,y,4.79,4.79
p013,survey-likert,155407,"[0,1,2,3,4,5,6,7,8,9,10,11,12,13,14,15,16,17,18,19,20,21,22,23,24,25,26,27,28,29,30,31,32,33,34,35,36,37,38,39]",,Q7,armadillo,4,somewhat_unfamiliar,armadillo.jpg,dimy,y,,8.608885,8,,,y,8.608885,8.608885
p013,survey-likert,155407,"[0,1,2,3,4,5,6,7,8,9,10,11,12,13,14,15,16,17,18,19,20,21,22,23,24,25,26,27,28,29,30,31,32,33,34,35,36,37,38,39]",,Q8,dolphin,5,somewhat_familiar,dolphin.png,BOSS,n,,6.05,10,,,y,6.05,6.05
p013,survey-likert,155407,"[0,1,2,3,4,5,6,7,8,9,10,11,12,13,14,15,16,17,18,19,20,21,22,23,24,25,26,27,28,29,30,31,32,33,34,35,36,37,38,39]",,Q9,rabbit,4,familiar,rabbit.png,BOSS,n,,3.94,2,,,y,3.94,3.94
p013,survey-likert,155407,"[0,1,2,3,4,5,6,7,8,9,10,11,12,13,14,15,16,17,18,19,20,21,22,23,24,25,26,27,28,29,30,31,32,33,34,35,36,37,38,39]",,Q10,lynx,1,unfamiliar,lynx.png,BOSS,n,,10.53,13,,,y,10.53,10.53
p013,survey-likert,155407,"[0,1,2,3,4,5,6,7,8,9,10,11,12,13,14,15,16,17,18,19,20,21,22,23,24,25,26,27,28,29,30,31,32,33,34,35,36,37,38,39]",,Q11,duck,5,familiar,duck.png,MEM,n,,3.5,2,,,fam,3.5,3.5
p013,survey-likert,155407,"[0,1,2,3,4,5,6,7,8,9,10,11,12,13,14,15,16,17,18,19,20,21,22,23,24,25,26,27,28,29,30,31,32,33,34,35,36,37,38,39]",,Q12,manatee,2,somewhat_unfamiliar,manatee.jpg,Moreno,y,,10.56,14,,,y,10.56,10.56
p013,survey-likert,155407,"[0,1,2,3,4,5,6,7,8,9,10,11,12,13,14,15,16,17,18,19,20,21,22,23,24,25,26,27,28,29,30,31,32,33,34,35,36,37,38,39]",,Q13,narwhal,4,unfamiliar,narwhal.png,BOSS,n,,12.14,12,,,y,12.14,12.14
p013,survey-likert,155407,"[0,1,2,3,4,5,6,7,8,9,10,11,12,13,14,15,16,17,18,19,20,21,22,23,24,25,26,27,28,29,30,31,32,33,34,35,36,37,38,39]",,Q14,pig,5,familiar,pig.png,BOSS,n,,3.84,2,,,y,3.84,3.84
p013,survey-likert,155407,"[0,1,2,3,4,5,6,7,8,9,10,11,12,13,14,15,16,17,18,19,20,21,22,23,24,25,26,27,28,29,30,31,32,33,34,35,36,37,38,39]",,Q15,hippopotamus,3,somewhat_familiar,hippopotamus.png,BOSS,n,,7,4,,,y,7,7
p013,survey-likert,155407,"[0,1,2,3,4,5,6,7,8,9,10,11,12,13,14,15,16,17,18,19,20,21,22,23,24,25,26,27,28,29,30,31,32,33,34,35,36,37,38,39]",,Q16,tarsier,0,unfamiliar,tarsier.jpeg,Wikimedia,y,,NA,NA,,,y,14.22,14.22
p013,survey-likert,155407,"[0,1,2,3,4,5,6,7,8,9,10,11,12,13,14,15,16,17,18,19,20,21,22,23,24,25,26,27,28,29,30,31,32,33,34,35,36,37,38,39]",,Q17,tiger,5,familiar,tiger.png,BOSS,n,,4,2,,,y,4,4
p013,survey-likert,155407,"[0,1,2,3,4,5,6,7,8,9,10,11,12,13,14,15,16,17,18,19,20,21,22,23,24,25,26,27,28,29,30,31,32,33,34,35,36,37,38,39]",,Q18,dog,5,familiar,dog.png,CATegories,n,,2.8,2,,,y,2.8,2.8
p013,survey-likert,155407,"[0,1,2,3,4,5,6,7,8,9,10,11,12,13,14,15,16,17,18,19,20,21,22,23,24,25,26,27,28,29,30,31,32,33,34,35,36,37,38,39]",,Q19,echidna,0,unfamiliar,echidna.jpg,chen,y,,NA,12,,,y,14.22,14.22
p013,survey-likert,155407,"[0,1,2,3,4,5,6,7,8,9,10,11,12,13,14,15,16,17,18,19,20,21,22,23,24,25,26,27,28,29,30,31,32,33,34,35,36,37,38,39]",,Q20,antelope,1,somewhat_unfamiliar,antelope.png,BOSS,n,,8.39,4,,,y,8.39,8.39
p013,survey-likert,155407,"[0,1,2,3,4,5,6,7,8,9,10,11,12,13,14,15,16,17,18,19,20,21,22,23,24,25,26,27,28,29,30,31,32,33,34,35,36,37,38,39]",,Q21,jaguar,1,somewhat_familiar,jaguar.png,BOSS,n,,7.78,4,,,y,7.78,7.78
p013,survey-likert,155407,"[0,1,2,3,4,5,6,7,8,9,10,11,12,13,14,15,16,17,18,19,20,21,22,23,24,25,26,27,28,29,30,31,32,33,34,35,36,37,38,39]",,Q22,elephant,5,familiar,elephant.png,BOSS,n,,4.8,2,,,y,4.8,4.8
p013,survey-likert,155407,"[0,1,2,3,4,5,6,7,8,9,10,11,12,13,14,15,16,17,18,19,20,21,22,23,24,25,26,27,28,29,30,31,32,33,34,35,36,37,38,39]",,Q23,nyala,0,unfamiliar,nyala.png,BOSS,n,,NA,NA,,,y,14.22,14.22
p013,survey-likert,155407,"[0,1,2,3,4,5,6,7,8,9,10,11,12,13,14,15,16,17,18,19,20,21,22,23,24,25,26,27,28,29,30,31,32,33,34,35,36,37,38,39]",,Q24,aardvark,1,somewhat_unfamiliar,aardvark.jpg,chen,y,,9.89,14,,,y,9.89,9.89
p013,survey-likert,155407,"[0,1,2,3,4,5,6,7,8,9,10,11,12,13,14,15,16,17,18,19,20,21,22,23,24,25,26,27,28,29,30,31,32,33,34,35,36,37,38,39]",,Q25,squirrel,5,familiar,squirrel.png,BOSS,n,,4.44,2,N,not a great picture,fam,4.44,4.44
p013,survey-likert,155407,"[0,1,2,3,4,5,6,7,8,9,10,11,12,13,14,15,16,17,18,19,20,21,22,23,24,25,26,27,28,29,30,31,32,33,34,35,36,37,38,39]",,Q26,cat,5,familiar,cat.png,CATegories,n,,3.68,2,,,fam,3.68,3.68
p013,survey-likert,155407,"[0,1,2,3,4,5,6,7,8,9,10,11,12,13,14,15,16,17,18,19,20,21,22,23,24,25,26,27,28,29,30,31,32,33,34,35,36,37,38,39]",,Q27,tapir,1,unfamiliar,editing_needed,dimy,y,,11.23,13,,,y,11.23,11.23
p013,survey-likert,155407,"[0,1,2,3,4,5,6,7,8,9,10,11,12,13,14,15,16,17,18,19,20,21,22,23,24,25,26,27,28,29,30,31,32,33,34,35,36,37,38,39]",,Q28,raccoon,5,somewhat_familiar,raccoon.png,BOSS,n,,6.79,2,,,y,6.79,6.79
p013,survey-likert,155407,"[0,1,2,3,4,5,6,7,8,9,10,11,12,13,14,15,16,17,18,19,20,21,22,23,24,25,26,27,28,29,30,31,32,33,34,35,36,37,38,39]",,Q29,lobster,5,somewhat_familiar,lobster.png,BOSS,n,,7.44,2,,,y,7.44,7.44
p013,survey-likert,155407,"[0,1,2,3,4,5,6,7,8,9,10,11,12,13,14,15,16,17,18,19,20,21,22,23,24,25,26,27,28,29,30,31,32,33,34,35,36,37,38,39]",,Q30,pangolin,5,unfamiliar,pangolin.jpg,dimy,n,,NA,13,,,y,14.22,14.22
p013,survey-likert,155407,"[0,1,2,3,4,5,6,7,8,9,10,11,12,13,14,15,16,17,18,19,20,21,22,23,24,25,26,27,28,29,30,31,32,33,34,35,36,37,38,39]",,Q31,horse,5,familiar,horse.png,BOSS,n,,4.15,2,,,fam,4.15,4.15
p013,survey-likert,155407,"[0,1,2,3,4,5,6,7,8,9,10,11,12,13,14,15,16,17,18,19,20,21,22,23,24,25,26,27,28,29,30,31,32,33,34,35,36,37,38,39]",,Q32,wolf,5,familiar,wolf.png,BOSS,n,,4.5,2,,,fam,4.5,4.5
p013,survey-likert,155407,"[0,1,2,3,4,5,6,7,8,9,10,11,12,13,14,15,16,17,18,19,20,21,22,23,24,25,26,27,28,29,30,31,32,33,34,35,36,37,38,39]",,Q33,cow,5,familiar,cow.png,BOSS,n,,3.94,2,,,fam,3.94,3.94
p013,survey-likert,155407,"[0,1,2,3,4,5,6,7,8,9,10,11,12,13,14,15,16,17,18,19,20,21,22,23,24,25,26,27,28,29,30,31,32,33,34,35,36,37,38,39]",,Q34,flamingo,5,somewhat_familiar,flamingo.png,BOSS,n,,6.32,6,,,y,6.32,6.32
p013,survey-likert,155407,"[0,1,2,3,4,5,6,7,8,9,10,11,12,13,14,15,16,17,18,19,20,21,22,23,24,25,26,27,28,29,30,31,32,33,34,35,36,37,38,39]",,Q35,turtle,5,familiar,turtle.png,BOSS,n,,4.17,2,,,y,4.17,4.17
p013,survey-likert,155407,"[0,1,2,3,4,5,6,7,8,9,10,11,12,13,14,15,16,17,18,19,20,21,22,23,24,25,26,27,28,29,30,31,32,33,34,35,36,37,38,39]",,Q36,sloth,4,somewhat_unfamiliar,sloth.jpg,chen,y,,8.37,12,,,y,8.37,8.37
p013,survey-likert,155407,"[0,1,2,3,4,5,6,7,8,9,10,11,12,13,14,15,16,17,18,19,20,21,22,23,24,25,26,27,28,29,30,31,32,33,34,35,36,37,38,39]",,Q37,butterfly,5,familiar,butterfly.png,BOSS,n,,3.67,2,,,fam,3.67,3.67
p013,survey-likert,155407,"[0,1,2,3,4,5,6,7,8,9,10,11,12,13,14,15,16,17,18,19,20,21,22,23,24,25,26,27,28,29,30,31,32,33,34,35,36,37,38,39]",,Q38,frog,5,familiar,frog.png,CARE,n,,4.32,2,,,fam,4.32,4.32
p013,survey-likert,155407,"[0,1,2,3,4,5,6,7,8,9,10,11,12,13,14,15,16,17,18,19,20,21,22,23,24,25,26,27,28,29,30,31,32,33,34,35,36,37,38,39]",,Q39,chameleon,4,somewhat_unfamiliar,chameleon.png,BOSS,n,,10.18,12,,,y,10.18,10.18
p014,survey-likert,139635,"[0,1,2,3,4,5,6,7,8,9,10,11,12,13,14,15,16,17,18,19,20,21,22,23,24,25,26,27,28,29,30,31,32,33,34,35,36,37,38,39]",,Q0,echidna,3,unfamiliar,echidna.jpg,chen,y,,NA,12,,,y,14.22,14.22
p014,survey-likert,139635,"[0,1,2,3,4,5,6,7,8,9,10,11,12,13,14,15,16,17,18,19,20,21,22,23,24,25,26,27,28,29,30,31,32,33,34,35,36,37,38,39]",,Q1,flamingo,4,somewhat_familiar,flamingo.png,BOSS,n,,6.32,6,,,y,6.32,6.32
p014,survey-likert,139635,"[0,1,2,3,4,5,6,7,8,9,10,11,12,13,14,15,16,17,18,19,20,21,22,23,24,25,26,27,28,29,30,31,32,33,34,35,36,37,38,39]",,Q2,elephant,5,familiar,elephant.png,BOSS,n,,4.8,2,,,y,4.8,4.8
p014,survey-likert,139635,"[0,1,2,3,4,5,6,7,8,9,10,11,12,13,14,15,16,17,18,19,20,21,22,23,24,25,26,27,28,29,30,31,32,33,34,35,36,37,38,39]",,Q3,narwhal,3,unfamiliar,narwhal.png,BOSS,n,,12.14,12,,,y,12.14,12.14
p014,survey-likert,139635,"[0,1,2,3,4,5,6,7,8,9,10,11,12,13,14,15,16,17,18,19,20,21,22,23,24,25,26,27,28,29,30,31,32,33,34,35,36,37,38,39]",,Q4,rabbit,5,familiar,rabbit.png,BOSS,n,,3.94,2,,,y,3.94,3.94
p014,survey-likert,139635,"[0,1,2,3,4,5,6,7,8,9,10,11,12,13,14,15,16,17,18,19,20,21,22,23,24,25,26,27,28,29,30,31,32,33,34,35,36,37,38,39]",,Q5,butterfly,5,familiar,butterfly.png,BOSS,n,,3.67,2,,,fam,3.67,3.67
p014,survey-likert,139635,"[0,1,2,3,4,5,6,7,8,9,10,11,12,13,14,15,16,17,18,19,20,21,22,23,24,25,26,27,28,29,30,31,32,33,34,35,36,37,38,39]",,Q6,dog,5,familiar,dog.png,CATegories,n,,2.8,2,,,y,2.8,2.8
p014,survey-likert,139635,"[0,1,2,3,4,5,6,7,8,9,10,11,12,13,14,15,16,17,18,19,20,21,22,23,24,25,26,27,28,29,30,31,32,33,34,35,36,37,38,39]",,Q7,duck,5,familiar,duck.png,MEM,n,,3.5,2,,,fam,3.5,3.5
p014,survey-likert,139635,"[0,1,2,3,4,5,6,7,8,9,10,11,12,13,14,15,16,17,18,19,20,21,22,23,24,25,26,27,28,29,30,31,32,33,34,35,36,37,38,39]",,Q8,alpaca,2,somewhat_unfamiliar,alpaca.jpg,dimy,y,,10.81,12,,,y,10.81,10.81
p014,survey-likert,139635,"[0,1,2,3,4,5,6,7,8,9,10,11,12,13,14,15,16,17,18,19,20,21,22,23,24,25,26,27,28,29,30,31,32,33,34,35,36,37,38,39]",,Q9,chameleon,3,somewhat_unfamiliar,chameleon.png,BOSS,n,,10.18,12,,,y,10.18,10.18
p014,survey-likert,139635,"[0,1,2,3,4,5,6,7,8,9,10,11,12,13,14,15,16,17,18,19,20,21,22,23,24,25,26,27,28,29,30,31,32,33,34,35,36,37,38,39]",,Q10,turtle,5,familiar,turtle.png,BOSS,n,,4.17,2,,,y,4.17,4.17
p014,survey-likert,139635,"[0,1,2,3,4,5,6,7,8,9,10,11,12,13,14,15,16,17,18,19,20,21,22,23,24,25,26,27,28,29,30,31,32,33,34,35,36,37,38,39]",,Q11,bear,5,familiar,bear.png,BOSS,n,,3.58,2,,,y,3.58,3.58
p014,survey-likert,139635,"[0,1,2,3,4,5,6,7,8,9,10,11,12,13,14,15,16,17,18,19,20,21,22,23,24,25,26,27,28,29,30,31,32,33,34,35,36,37,38,39]",,Q12,tiger,5,familiar,tiger.png,BOSS,n,,4,2,,,y,4,4
p014,survey-likert,139635,"[0,1,2,3,4,5,6,7,8,9,10,11,12,13,14,15,16,17,18,19,20,21,22,23,24,25,26,27,28,29,30,31,32,33,34,35,36,37,38,39]",,Q13,pig,5,familiar,pig.png,BOSS,n,,3.84,2,,,y,3.84,3.84
p014,survey-likert,139635,"[0,1,2,3,4,5,6,7,8,9,10,11,12,13,14,15,16,17,18,19,20,21,22,23,24,25,26,27,28,29,30,31,32,33,34,35,36,37,38,39]",,Q14,tapir,1,unfamiliar,editing_needed,dimy,y,,11.23,13,,,y,11.23,11.23
p014,survey-likert,139635,"[0,1,2,3,4,5,6,7,8,9,10,11,12,13,14,15,16,17,18,19,20,21,22,23,24,25,26,27,28,29,30,31,32,33,34,35,36,37,38,39]",,Q15,cormorant,1,unfamiliar,cormorant.png,BOSS,n,,14.22,13,,,y,14.22,14.22
p014,survey-likert,139635,"[0,1,2,3,4,5,6,7,8,9,10,11,12,13,14,15,16,17,18,19,20,21,22,23,24,25,26,27,28,29,30,31,32,33,34,35,36,37,38,39]",,Q16,manatee,3,somewhat_unfamiliar,manatee.jpg,Moreno,y,,10.56,14,,,y,10.56,10.56
p014,survey-likert,139635,"[0,1,2,3,4,5,6,7,8,9,10,11,12,13,14,15,16,17,18,19,20,21,22,23,24,25,26,27,28,29,30,31,32,33,34,35,36,37,38,39]",,Q17,porcupine,5,somewhat_familiar,porcupine.png,BOSS,n,,6.89,6,,,y,6.89,6.89
p014,survey-likert,139635,"[0,1,2,3,4,5,6,7,8,9,10,11,12,13,14,15,16,17,18,19,20,21,22,23,24,25,26,27,28,29,30,31,32,33,34,35,36,37,38,39]",,Q18,lynx,2,unfamiliar,lynx.png,BOSS,n,,10.53,13,,,y,10.53,10.53
p014,survey-likert,139635,"[0,1,2,3,4,5,6,7,8,9,10,11,12,13,14,15,16,17,18,19,20,21,22,23,24,25,26,27,28,29,30,31,32,33,34,35,36,37,38,39]",,Q19,frog,5,familiar,frog.png,CARE,n,,4.32,2,,,fam,4.32,4.32
p014,survey-likert,139635,"[0,1,2,3,4,5,6,7,8,9,10,11,12,13,14,15,16,17,18,19,20,21,22,23,24,25,26,27,28,29,30,31,32,33,34,35,36,37,38,39]",,Q20,squirrel,5,familiar,squirrel.png,BOSS,n,,4.44,2,N,not a great picture,fam,4.44,4.44
p014,survey-likert,139635,"[0,1,2,3,4,5,6,7,8,9,10,11,12,13,14,15,16,17,18,19,20,21,22,23,24,25,26,27,28,29,30,31,32,33,34,35,36,37,38,39]",,Q21,cat,5,familiar,cat.png,CATegories,n,,3.68,2,,,fam,3.68,3.68
p014,survey-likert,139635,"[0,1,2,3,4,5,6,7,8,9,10,11,12,13,14,15,16,17,18,19,20,21,22,23,24,25,26,27,28,29,30,31,32,33,34,35,36,37,38,39]",,Q22,zebra,5,familiar,zebra.png,BOSS,n,,4.79,2,,,y,4.79,4.79
p014,survey-likert,139635,"[0,1,2,3,4,5,6,7,8,9,10,11,12,13,14,15,16,17,18,19,20,21,22,23,24,25,26,27,28,29,30,31,32,33,34,35,36,37,38,39]",,Q23,hippopotamus,4,somewhat_familiar,hippopotamus.png,BOSS,n,,7,4,,,y,7,7
p014,survey-likert,139635,"[0,1,2,3,4,5,6,7,8,9,10,11,12,13,14,15,16,17,18,19,20,21,22,23,24,25,26,27,28,29,30,31,32,33,34,35,36,37,38,39]",,Q24,wolf,4,familiar,wolf.png,BOSS,n,,4.5,2,,,fam,4.5,4.5
p014,survey-likert,139635,"[0,1,2,3,4,5,6,7,8,9,10,11,12,13,14,15,16,17,18,19,20,21,22,23,24,25,26,27,28,29,30,31,32,33,34,35,36,37,38,39]",,Q25,wombat,1,unfamiliar,editing_needed,dimy,y,,11.31,13,,,y,11.31,11.31
p014,survey-likert,139635,"[0,1,2,3,4,5,6,7,8,9,10,11,12,13,14,15,16,17,18,19,20,21,22,23,24,25,26,27,28,29,30,31,32,33,34,35,36,37,38,39]",,Q26,horse,5,familiar,horse.png,BOSS,n,,4.15,2,,,fam,4.15,4.15
p014,survey-likert,139635,"[0,1,2,3,4,5,6,7,8,9,10,11,12,13,14,15,16,17,18,19,20,21,22,23,24,25,26,27,28,29,30,31,32,33,34,35,36,37,38,39]",,Q27,aardvark,1,somewhat_unfamiliar,aardvark.jpg,chen,y,,9.89,14,,,y,9.89,9.89
p014,survey-likert,139635,"[0,1,2,3,4,5,6,7,8,9,10,11,12,13,14,15,16,17,18,19,20,21,22,23,24,25,26,27,28,29,30,31,32,33,34,35,36,37,38,39]",,Q28,pangolin,1,unfamiliar,pangolin.jpg,dimy,n,,NA,13,,,y,14.22,14.22
p014,survey-likert,139635,"[0,1,2,3,4,5,6,7,8,9,10,11,12,13,14,15,16,17,18,19,20,21,22,23,24,25,26,27,28,29,30,31,32,33,34,35,36,37,38,39]",,Q29,cow,5,familiar,cow.png,BOSS,n,,3.94,2,,,fam,3.94,3.94
p014,survey-likert,139635,"[0,1,2,3,4,5,6,7,8,9,10,11,12,13,14,15,16,17,18,19,20,21,22,23,24,25,26,27,28,29,30,31,32,33,34,35,36,37,38,39]",,Q30,koala,5,somewhat_familiar,koala.jpg,dimy,y,,6,10,,,y,6,6
p014,survey-likert,139635,"[0,1,2,3,4,5,6,7,8,9,10,11,12,13,14,15,16,17,18,19,20,21,22,23,24,25,26,27,28,29,30,31,32,33,34,35,36,37,38,39]",,Q31,jaguar,3,somewhat_familiar,jaguar.png,BOSS,n,,7.78,4,,,y,7.78,7.78
